pos1,pos2,pos3,pos4,pos5,pos6,shape1,shape2,shape3,shape4,shape5,shape6,singleton,target_color,target_orientation,cue_validity,trials.thisRepN,trials.thisTrialN,trials.thisN,trials.thisIndex,search_response.keys,search_response.corr,search_response.rt,key_block.keys,key_block.rt,end_key.keys,end_key.rt,participant,session,distractor_prevalence,validity,date,expName,psychopyVersion,frameRate,
4,5,2,3,1,0,4,0,0,6,5,3,0,0,1,1,0,0,0,0,up,1,1.0201969999980065,None,,,,pil_004,002,0.5,1.0,2023-03-24_17h41.39.881,stress,2023.1.0,60.09236196099581,
4,3,0,1,2,5,4,6,6,3,0,5,1,1,0,1,0,1,1,1,left,1,0.6019255999999586,None,,,,pil_004,002,0.5,1.0,2023-03-24_17h41.39.881,stress,2023.1.0,60.09236196099581,
4,2,0,3,1,5,4,5,3,0,0,3,1,1,0,1,0,2,2,2,left,1,0.49556329999904847,None,,,,pil_004,002,0.5,1.0,2023-03-24_17h41.39.881,stress,2023.1.0,60.09236196099581,
5,3,4,0,1,2,4,6,3,5,3,0,1,1,0,1,0,3,3,3,left,1,0.7070276000013109,None,,,,pil_004,002,0.5,1.0,2023-03-24_17h41.39.881,stress,2023.1.0,60.09236196099581,
2,0,4,3,1,5,4,0,3,5,5,6,0,1,1,1,0,4,4,4,up,1,1.5067546000027505,None,,,,pil_004,002,0.5,1.0,2023-03-24_17h41.39.881,stress,2023.1.0,60.09236196099581,
1,3,0,5,4,2,4,6,0,3,3,5,0,0,0,1,0,5,5,5,left,1,1.438298200002464,None,,,,pil_004,002,0.5,1.0,2023-03-24_17h41.39.881,stress,2023.1.0,60.09236196099581,
0,1,2,4,3,5,4,5,3,6,5,0,1,0,1,1,0,6,6,6,up,1,0.9154113000004145,None,,,,pil_004,002,0.5,1.0,2023-03-24_17h41.39.881,stress,2023.1.0,60.09236196099581,
2,5,1,4,0,3,4,5,6,0,0,5,0,0,0,1,0,7,7,7,left,1,1.6262457999982871,None,,,,pil_004,002,0.5,1.0,2023-03-24_17h41.39.881,stress,2023.1.0,60.09236196099581,
1,5,0,3,4,2,4,0,5,6,3,6,1,1,1,1,0,8,8,8,up,1,1.3927260999989812,None,,,,pil_004,002,0.5,1.0,2023-03-24_17h41.39.881,stress,2023.1.0,60.09236196099581,
3,2,0,4,5,1,4,3,5,3,5,0,0,1,1,1,0,9,9,9,up,1,0.8085280000013881,None,,,,pil_004,002,0.5,1.0,2023-03-24_17h41.39.881,stress,2023.1.0,60.09236196099581,
1,0,3,5,4,2,4,3,5,5,6,0,0,0,0,1,0,10,10,10,left,1,1.9905299000020023,None,,,,pil_004,002,0.5,1.0,2023-03-24_17h41.39.881,stress,2023.1.0,60.09236196099581,
1,2,0,5,3,4,4,0,6,3,6,3,0,0,1,1,0,11,11,11,up,1,0.6437126000018907,None,,,,pil_004,002,0.5,1.0,2023-03-24_17h41.39.881,stress,2023.1.0,60.09236196099581,
4,2,3,5,0,1,4,0,6,5,0,3,1,1,0,1,0,12,12,12,left,1,1.0622076999970886,None,,,,pil_004,002,0.5,1.0,2023-03-24_17h41.39.881,stress,2023.1.0,60.09236196099581,
4,1,3,5,2,0,4,0,6,5,5,3,0,1,1,1,0,13,13,13,up,1,0.8495522000011988,None,,,,pil_004,002,0.5,1.0,2023-03-24_17h41.39.881,stress,2023.1.0,60.09236196099581,
3,5,4,1,0,2,4,0,6,6,5,3,0,0,1,1,0,14,14,14,up,1,1.8231340999991517,None,,,,pil_004,002,0.5,1.0,2023-03-24_17h41.39.881,stress,2023.1.0,60.09236196099581,
2,5,1,4,3,0,4,3,0,5,3,0,1,0,1,1,0,15,15,15,up,1,1.0957391999982065,None,,,,pil_004,002,0.5,1.0,2023-03-24_17h41.39.881,stress,2023.1.0,60.09236196099581,
2,3,5,0,1,4,4,0,6,6,3,5,0,1,0,1,0,16,16,16,left,1,0.5364670999988448,None,,,,pil_004,002,0.5,1.0,2023-03-24_17h41.39.881,stress,2023.1.0,60.09236196099581,
1,4,3,2,0,5,4,0,3,6,3,5,1,0,1,1,0,17,17,17,up,1,1.2766425999980129,None,,,,pil_004,002,0.5,1.0,2023-03-24_17h41.39.881,stress,2023.1.0,60.09236196099581,
4,3,1,5,0,2,4,0,6,5,3,3,1,0,0,1,0,18,18,18,left,1,1.1520170000003418,None,,,,pil_004,002,0.5,1.0,2023-03-24_17h41.39.881,stress,2023.1.0,60.09236196099581,
5,2,1,0,3,4,4,0,0,6,5,6,1,0,1,1,0,19,19,19,up,1,0.7541422000031162,None,,,,pil_004,002,0.5,1.0,2023-03-24_17h41.39.881,stress,2023.1.0,60.09236196099581,
4,1,3,5,2,0,4,0,5,0,5,3,0,0,1,1,0,20,20,20,up,1,0.6252569000025687,None,,,,pil_004,002,0.5,1.0,2023-03-24_17h41.39.881,stress,2023.1.0,60.09236196099581,
1,4,2,5,0,3,4,0,0,6,3,6,0,0,1,1,0,21,21,21,up,1,1.4586995000026945,None,,,,pil_004,002,0.5,1.0,2023-03-24_17h41.39.881,stress,2023.1.0,60.09236196099581,
0,1,2,3,5,4,4,6,6,3,5,0,1,0,1,1,0,22,22,22,up,1,1.3528021999991324,None,,,,pil_004,002,0.5,1.0,2023-03-24_17h41.39.881,stress,2023.1.0,60.09236196099581,
0,1,2,3,4,5,4,0,3,3,5,6,1,0,0,1,0,23,23,23,left,1,1.253998899999715,None,,,,pil_004,002,0.5,1.0,2023-03-24_17h41.39.881,stress,2023.1.0,60.09236196099581,
5,1,2,3,4,0,4,6,6,0,3,5,0,0,1,1,0,24,24,24,up,1,0.8587990999985777,None,,,,pil_004,002,0.5,1.0,2023-03-24_17h41.39.881,stress,2023.1.0,60.09236196099581,
5,0,1,4,2,3,4,0,0,3,3,6,1,1,0,1,0,25,25,25,left,1,0.7686214999994263,None,,,,pil_004,002,0.5,1.0,2023-03-24_17h41.39.881,stress,2023.1.0,60.09236196099581,
1,3,0,2,4,5,4,0,5,0,5,6,0,1,1,1,0,26,26,26,up,1,1.830575799998769,None,,,,pil_004,002,0.5,1.0,2023-03-24_17h41.39.881,stress,2023.1.0,60.09236196099581,
3,4,1,0,5,2,4,6,5,3,6,0,0,0,0,1,0,27,27,27,left,1,0.8883597000021837,None,,,,pil_004,002,0.5,1.0,2023-03-24_17h41.39.881,stress,2023.1.0,60.09236196099581,
0,4,5,1,3,2,4,5,5,6,0,3,0,0,0,1,0,28,28,28,left,1,1.4666785999979766,None,,,,pil_004,002,0.5,1.0,2023-03-24_17h41.39.881,stress,2023.1.0,60.09236196099581,
3,4,0,1,2,5,4,5,3,3,0,6,0,0,0,1,0,29,29,29,left,1,1.133077400001639,None,,,,pil_004,002,0.5,1.0,2023-03-24_17h41.39.881,stress,2023.1.0,60.09236196099581,
0,5,4,1,2,3,4,3,0,3,0,6,0,1,1,1,0,30,30,30,up,1,1.9013573999982327,None,,,,pil_004,002,0.5,1.0,2023-03-24_17h41.39.881,stress,2023.1.0,60.09236196099581,
5,1,4,3,2,0,4,0,5,5,6,0,1,0,1,1,0,31,31,31,up,1,0.9377032999982475,None,,,,pil_004,002,0.5,1.0,2023-03-24_17h41.39.881,stress,2023.1.0,60.09236196099581,
2,5,4,1,3,0,4,6,5,3,3,5,1,1,1,1,0,32,32,32,up,1,2.1938899000015226,None,,,,pil_004,002,0.5,1.0,2023-03-24_17h41.39.881,stress,2023.1.0,60.09236196099581,
5,0,1,2,4,3,4,0,3,5,6,5,1,0,1,1,0,33,33,33,up,1,0.94382410000253,None,,,,pil_004,002,0.5,1.0,2023-03-24_17h41.39.881,stress,2023.1.0,60.09236196099581,
2,5,0,3,4,1,4,6,0,5,0,3,1,1,0,1,0,34,34,34,left,1,0.7983901000006881,None,,,,pil_004,002,0.5,1.0,2023-03-24_17h41.39.881,stress,2023.1.0,60.09236196099581,
1,4,3,0,2,5,4,0,3,5,3,0,1,1,0,1,0,35,35,35,left,1,1.7778939000018,None,,,,pil_004,002,0.5,1.0,2023-03-24_17h41.39.881,stress,2023.1.0,60.09236196099581,
5,4,1,3,2,0,4,5,5,6,3,0,1,1,1,1,0,36,36,36,up,1,0.9390539999985776,None,,,,pil_004,002,0.5,1.0,2023-03-24_17h41.39.881,stress,2023.1.0,60.09236196099581,
1,4,5,0,2,3,4,6,3,5,6,5,1,1,1,1,0,37,37,37,up,1,0.6847221000025456,None,,,,pil_004,002,0.5,1.0,2023-03-24_17h41.39.881,stress,2023.1.0,60.09236196099581,
2,5,4,3,1,0,4,6,5,5,6,0,0,1,0,1,0,38,38,38,left,1,0.79798590000064,None,,,,pil_004,002,0.5,1.0,2023-03-24_17h41.39.881,stress,2023.1.0,60.09236196099581,
4,0,5,2,3,1,4,0,3,6,0,5,0,1,1,1,0,39,39,39,up,1,1.4377290999982506,space,2.0351994999982708,,,pil_004,002,0.5,1.0,2023-03-24_17h41.39.881,stress,2023.1.0,60.09236196099581,
5,3,4,1,2,0,4,5,0,3,6,0,1,1,0,1,0,40,40,40,left,1,1.2182107000007818,None,,,,pil_004,002,0.5,1.0,2023-03-24_17h41.39.881,stress,2023.1.0,60.09236196099581,
2,1,4,5,0,3,4,6,3,5,5,3,1,0,1,1,0,41,41,41,up,1,0.4857228999971994,None,,,,pil_004,002,0.5,1.0,2023-03-24_17h41.39.881,stress,2023.1.0,60.09236196099581,
3,0,5,4,2,1,4,3,5,3,0,6,0,0,1,1,0,42,42,42,up,1,0.6754126999985601,None,,,,pil_004,002,0.5,1.0,2023-03-24_17h41.39.881,stress,2023.1.0,60.09236196099581,
2,4,5,0,3,1,4,6,3,0,6,5,0,0,1,1,0,43,43,43,up,1,0.6009687000005215,None,,,,pil_004,002,0.5,1.0,2023-03-24_17h41.39.881,stress,2023.1.0,60.09236196099581,
4,2,1,0,5,3,4,6,3,5,0,3,1,1,0,1,0,44,44,44,left,1,1.4539100000001781,None,,,,pil_004,002,0.5,1.0,2023-03-24_17h41.39.881,stress,2023.1.0,60.09236196099581,
3,1,0,2,4,5,4,0,5,3,3,5,0,1,1,1,0,45,45,45,up,1,1.9331878000011784,None,,,,pil_004,002,0.5,1.0,2023-03-24_17h41.39.881,stress,2023.1.0,60.09236196099581,
4,5,1,2,3,0,4,3,0,5,5,6,1,0,1,1,0,46,46,46,up,1,0.9107302999982494,None,,,,pil_004,002,0.5,1.0,2023-03-24_17h41.39.881,stress,2023.1.0,60.09236196099581,
5,2,3,0,4,1,4,0,6,0,6,3,0,1,1,1,0,47,47,47,up,1,0.8921336000021256,None,,,,pil_004,002,0.5,1.0,2023-03-24_17h41.39.881,stress,2023.1.0,60.09236196099581,
3,1,4,5,0,2,4,3,5,6,6,3,1,1,0,1,0,48,48,48,left,1,2.0861824000021443,None,,,,pil_004,002,0.5,1.0,2023-03-24_17h41.39.881,stress,2023.1.0,60.09236196099581,
2,4,3,0,5,1,4,6,0,3,3,6,1,0,1,1,0,49,49,49,up,1,0.7977181999995082,None,,,,pil_004,002,0.5,1.0,2023-03-24_17h41.39.881,stress,2023.1.0,60.09236196099581,
4,2,5,1,3,0,4,6,5,5,6,3,1,1,0,1,0,50,50,50,left,1,1.539540499998111,None,,,,pil_004,002,0.5,1.0,2023-03-24_17h41.39.881,stress,2023.1.0,60.09236196099581,
1,3,4,5,2,0,4,5,6,3,0,6,0,1,0,1,0,51,51,51,left,1,1.452994999999646,None,,,,pil_004,002,0.5,1.0,2023-03-24_17h41.39.881,stress,2023.1.0,60.09236196099581,
1,0,3,5,2,4,4,6,3,0,0,5,1,1,0,1,0,52,52,52,left,1,0.5812329000000318,None,,,,pil_004,002,0.5,1.0,2023-03-24_17h41.39.881,stress,2023.1.0,60.09236196099581,
4,0,1,2,3,5,4,6,3,0,5,5,1,0,1,1,0,53,53,53,up,1,0.9613151999983529,None,,,,pil_004,002,0.5,1.0,2023-03-24_17h41.39.881,stress,2023.1.0,60.09236196099581,
5,1,3,4,0,2,4,0,5,6,3,3,0,0,1,1,0,54,54,54,up,1,1.161512100003165,None,,,,pil_004,002,0.5,1.0,2023-03-24_17h41.39.881,stress,2023.1.0,60.09236196099581,
0,5,4,1,2,3,4,3,0,5,5,6,1,1,0,1,0,55,55,55,left,1,2.0069087999982003,None,,,,pil_004,002,0.5,1.0,2023-03-24_17h41.39.881,stress,2023.1.0,60.09236196099581,
1,4,2,3,0,5,4,0,5,5,3,3,0,0,0,1,0,56,56,56,left,1,0.6384830000024522,None,,,,pil_004,002,0.5,1.0,2023-03-24_17h41.39.881,stress,2023.1.0,60.09236196099581,
5,4,0,1,3,2,4,3,5,5,6,0,0,0,0,1,0,57,57,57,left,1,1.4268478999983927,None,,,,pil_004,002,0.5,1.0,2023-03-24_17h41.39.881,stress,2023.1.0,60.09236196099581,
4,2,0,3,5,1,4,5,0,6,0,3,1,0,1,1,0,58,58,58,up,1,1.2085360000019136,None,,,,pil_004,002,0.5,1.0,2023-03-24_17h41.39.881,stress,2023.1.0,60.09236196099581,
0,3,5,4,1,2,4,5,3,0,6,0,0,0,0,1,0,59,59,59,left,1,0.9830255999986548,None,,,,pil_004,002,0.5,1.0,2023-03-24_17h41.39.881,stress,2023.1.0,60.09236196099581,
4,5,3,1,0,2,4,0,3,0,3,5,0,1,1,1,0,60,60,60,up,1,0.8702263999985007,None,,,,pil_004,002,0.5,1.0,2023-03-24_17h41.39.881,stress,2023.1.0,60.09236196099581,
2,3,0,1,4,5,4,5,5,3,0,6,1,0,0,1,0,61,61,61,left,1,1.0809097999990627,None,,,,pil_004,002,0.5,1.0,2023-03-24_17h41.39.881,stress,2023.1.0,60.09236196099581,
2,0,3,5,4,1,4,6,3,5,0,5,0,1,0,1,0,62,62,62,left,1,0.49014509999688016,None,,,,pil_004,002,0.5,1.0,2023-03-24_17h41.39.881,stress,2023.1.0,60.09236196099581,
5,0,4,1,3,2,4,3,6,6,0,0,1,0,0,1,0,63,63,63,left,1,0.6620446000015363,None,,,,pil_004,002,0.5,1.0,2023-03-24_17h41.39.881,stress,2023.1.0,60.09236196099581,
3,4,0,1,5,2,4,0,5,6,3,0,0,1,1,1,0,64,64,64,up,1,0.6100102999989758,None,,,,pil_004,002,0.5,1.0,2023-03-24_17h41.39.881,stress,2023.1.0,60.09236196099581,
1,2,4,0,5,3,4,0,6,5,3,6,1,0,1,1,0,65,65,65,up,1,1.0286641000020609,None,,,,pil_004,002,0.5,1.0,2023-03-24_17h41.39.881,stress,2023.1.0,60.09236196099581,
5,2,4,1,3,0,4,3,0,0,6,5,0,1,0,1,0,66,66,66,left,1,1.0622616000000562,None,,,,pil_004,002,0.5,1.0,2023-03-24_17h41.39.881,stress,2023.1.0,60.09236196099581,
2,5,0,4,3,1,4,6,5,3,0,0,0,1,0,1,0,67,67,67,left,1,0.6847801000003528,None,,,,pil_004,002,0.5,1.0,2023-03-24_17h41.39.881,stress,2023.1.0,60.09236196099581,
4,3,0,2,5,1,4,5,5,0,3,3,0,1,0,1,0,68,68,68,left,1,1.5617207999966922,None,,,,pil_004,002,0.5,1.0,2023-03-24_17h41.39.881,stress,2023.1.0,60.09236196099581,
0,3,5,4,1,2,4,0,0,5,3,6,1,1,1,1,0,69,69,69,up,1,0.8912510000009206,None,,,,pil_004,002,0.5,1.0,2023-03-24_17h41.39.881,stress,2023.1.0,60.09236196099581,
4,2,5,1,0,3,4,3,6,0,3,0,0,0,1,1,0,70,70,70,up,1,1.0416827999979432,None,,,,pil_004,002,0.5,1.0,2023-03-24_17h41.39.881,stress,2023.1.0,60.09236196099581,
3,2,0,4,1,5,4,5,6,5,0,3,0,1,1,1,0,71,71,71,up,1,0.6913442000004579,None,,,,pil_004,002,0.5,1.0,2023-03-24_17h41.39.881,stress,2023.1.0,60.09236196099581,
5,0,3,1,2,4,4,5,3,0,6,0,1,1,0,1,0,72,72,72,left,1,0.9803845999995247,None,,,,pil_004,002,0.5,1.0,2023-03-24_17h41.39.881,stress,2023.1.0,60.09236196099581,
3,0,1,2,4,5,4,3,0,5,3,0,1,1,0,1,0,73,73,73,left,1,0.6203683000021556,None,,,,pil_004,002,0.5,1.0,2023-03-24_17h41.39.881,stress,2023.1.0,60.09236196099581,
2,5,1,4,3,0,4,6,6,5,3,5,0,1,0,1,0,74,74,74,left,1,0.8362712999987707,None,,,,pil_004,002,0.5,1.0,2023-03-24_17h41.39.881,stress,2023.1.0,60.09236196099581,
4,3,1,2,0,5,4,6,3,5,3,5,1,1,0,1,0,75,75,75,left,1,0.9615766999995685,None,,,,pil_004,002,0.5,1.0,2023-03-24_17h41.39.881,stress,2023.1.0,60.09236196099581,
5,2,4,3,1,0,4,6,0,5,6,3,1,1,0,1,0,76,76,76,left,1,1.6816195999999763,None,,,,pil_004,002,0.5,1.0,2023-03-24_17h41.39.881,stress,2023.1.0,60.09236196099581,
2,1,0,4,5,3,4,5,6,0,0,3,0,1,1,1,0,77,77,77,up,1,0.748666300001787,None,,,,pil_004,002,0.5,1.0,2023-03-24_17h41.39.881,stress,2023.1.0,60.09236196099581,
3,1,2,0,4,5,4,0,6,0,3,3,0,0,0,1,0,78,78,78,left,1,0.7732830000022659,None,,,,pil_004,002,0.5,1.0,2023-03-24_17h41.39.881,stress,2023.1.0,60.09236196099581,
3,4,1,5,0,2,4,0,6,3,5,0,1,0,0,1,0,79,79,79,left,1,0.5613751000018965,space,4.118851199997152,,,pil_004,002,0.5,1.0,2023-03-24_17h41.39.881,stress,2023.1.0,60.09236196099581,
3,0,1,5,4,2,4,5,3,5,3,6,0,1,1,1,0,80,80,80,up,1,0.7722414999989269,None,,,,pil_004,002,0.5,1.0,2023-03-24_17h41.39.881,stress,2023.1.0,60.09236196099581,
1,4,2,3,0,5,4,6,3,5,3,0,0,1,0,1,0,81,81,81,left,1,1.3968683999992209,None,,,,pil_004,002,0.5,1.0,2023-03-24_17h41.39.881,stress,2023.1.0,60.09236196099581,
2,5,1,4,0,3,4,5,6,6,5,3,0,1,1,1,0,82,82,82,up,1,0.6452123999988544,None,,,,pil_004,002,0.5,1.0,2023-03-24_17h41.39.881,stress,2023.1.0,60.09236196099581,
2,5,4,0,1,3,4,3,6,0,5,0,1,0,1,1,0,83,83,83,up,1,0.46405479999884847,None,,,,pil_004,002,0.5,1.0,2023-03-24_17h41.39.881,stress,2023.1.0,60.09236196099581,
4,0,2,5,3,1,4,6,6,5,5,0,0,0,1,1,0,84,84,84,up,1,0.8499162000007345,None,,,,pil_004,002,0.5,1.0,2023-03-24_17h41.39.881,stress,2023.1.0,60.09236196099581,
2,4,5,3,1,0,4,0,0,6,3,6,1,0,1,1,0,85,85,85,up,1,0.7967521000027773,None,,,,pil_004,002,0.5,1.0,2023-03-24_17h41.39.881,stress,2023.1.0,60.09236196099581,
2,5,4,1,0,3,4,0,3,0,3,6,0,0,0,1,0,86,86,86,left,1,0.7218124000028183,None,,,,pil_004,002,0.5,1.0,2023-03-24_17h41.39.881,stress,2023.1.0,60.09236196099581,
5,4,2,0,1,3,4,6,5,3,0,6,0,1,1,1,0,87,87,87,up,1,1.136572100000194,None,,,,pil_004,002,0.5,1.0,2023-03-24_17h41.39.881,stress,2023.1.0,60.09236196099581,
4,5,0,1,3,2,4,5,6,0,0,3,1,0,0,1,0,88,88,88,left,1,0.9875560000000405,None,,,,pil_004,002,0.5,1.0,2023-03-24_17h41.39.881,stress,2023.1.0,60.09236196099581,
1,3,0,5,2,4,4,0,5,0,5,6,0,1,0,1,0,89,89,89,left,1,1.3553954999988491,None,,,,pil_004,002,0.5,1.0,2023-03-24_17h41.39.881,stress,2023.1.0,60.09236196099581,
1,2,5,3,4,0,4,3,5,6,5,0,1,1,0,1,0,90,90,90,left,1,0.9577782999986084,None,,,,pil_004,002,0.5,1.0,2023-03-24_17h41.39.881,stress,2023.1.0,60.09236196099581,
3,5,2,0,1,4,4,6,3,6,5,0,0,0,0,1,0,91,91,91,left,1,0.7843057000027329,None,,,,pil_004,002,0.5,1.0,2023-03-24_17h41.39.881,stress,2023.1.0,60.09236196099581,
1,5,3,4,2,0,4,0,3,5,6,5,0,1,0,1,0,92,92,92,left,1,1.3408054000028642,None,,,,pil_004,002,0.5,1.0,2023-03-24_17h41.39.881,stress,2023.1.0,60.09236196099581,
2,4,1,0,3,5,4,5,6,0,3,6,0,1,0,1,0,93,93,93,left,1,0.6294309000004432,None,,,,pil_004,002,0.5,1.0,2023-03-24_17h41.39.881,stress,2023.1.0,60.09236196099581,
1,0,5,2,4,3,4,5,3,6,3,5,0,1,0,1,0,94,94,94,left,1,1.2112104000007093,None,,,,pil_004,002,0.5,1.0,2023-03-24_17h41.39.881,stress,2023.1.0,60.09236196099581,
5,1,4,3,2,0,4,5,3,3,0,6,0,1,0,1,0,95,95,95,left,1,1.5188573000014003,None,,,,pil_004,002,0.5,1.0,2023-03-24_17h41.39.881,stress,2023.1.0,60.09236196099581,
4,0,3,5,1,2,4,3,6,6,5,0,1,0,1,1,0,96,96,96,left,0,1.1257519999999204,None,,,,pil_004,002,0.5,1.0,2023-03-24_17h41.39.881,stress,2023.1.0,60.09236196099581,
0,4,2,5,3,1,4,0,6,3,0,3,1,1,1,1,0,97,97,97,up,1,1.391516399999091,None,,,,pil_004,002,0.5,1.0,2023-03-24_17h41.39.881,stress,2023.1.0,60.09236196099581,
2,0,5,1,3,4,4,3,3,5,5,0,0,0,1,1,0,98,98,98,up,1,0.6180562000008649,None,,,,pil_004,002,0.5,1.0,2023-03-24_17h41.39.881,stress,2023.1.0,60.09236196099581,
2,5,4,1,3,0,4,6,3,3,0,0,0,0,1,1,0,99,99,99,up,1,0.683347700000013,None,,,,pil_004,002,0.5,1.0,2023-03-24_17h41.39.881,stress,2023.1.0,60.09236196099581,
1,0,4,3,5,2,4,3,6,6,0,5,0,1,0,1,0,100,100,100,left,1,1.3651404999982333,None,,,,pil_004,002,0.5,1.0,2023-03-24_17h41.39.881,stress,2023.1.0,60.09236196099581,
5,2,4,3,1,0,4,6,5,6,0,3,0,0,1,1,0,101,101,101,up,1,1.6103562999996939,None,,,,pil_004,002,0.5,1.0,2023-03-24_17h41.39.881,stress,2023.1.0,60.09236196099581,
5,4,3,0,2,1,4,6,3,0,0,6,1,1,1,1,0,102,102,102,up,1,1.4544376000012562,None,,,,pil_004,002,0.5,1.0,2023-03-24_17h41.39.881,stress,2023.1.0,60.09236196099581,
0,3,4,1,5,2,4,5,5,3,0,3,1,1,1,1,0,103,103,103,up,1,1.2411821999994572,None,,,,pil_004,002,0.5,1.0,2023-03-24_17h41.39.881,stress,2023.1.0,60.09236196099581,
2,3,4,5,1,0,4,3,5,6,0,5,0,1,1,1,0,104,104,104,up,1,0.9575361999995948,None,,,,pil_004,002,0.5,1.0,2023-03-24_17h41.39.881,stress,2023.1.0,60.09236196099581,
0,1,4,2,3,5,4,0,0,6,3,6,0,0,0,1,0,105,105,105,left,1,1.206763799997134,None,,,,pil_004,002,0.5,1.0,2023-03-24_17h41.39.881,stress,2023.1.0,60.09236196099581,
2,5,4,0,1,3,4,5,6,0,0,5,0,0,0,1,0,106,106,106,left,1,0.6020377999993798,None,,,,pil_004,002,0.5,1.0,2023-03-24_17h41.39.881,stress,2023.1.0,60.09236196099581,
1,2,3,0,5,4,4,0,6,3,5,6,0,1,0,1,0,107,107,107,left,1,1.1423658999992767,None,,,,pil_004,002,0.5,1.0,2023-03-24_17h41.39.881,stress,2023.1.0,60.09236196099581,
5,4,2,1,0,3,4,0,3,3,0,6,0,0,0,1,0,108,108,108,left,1,0.9183009000007587,None,,,,pil_004,002,0.5,1.0,2023-03-24_17h41.39.881,stress,2023.1.0,60.09236196099581,
5,2,0,3,1,4,4,5,5,0,3,6,1,0,0,1,0,109,109,109,left,1,1.200726200000645,None,,,,pil_004,002,0.5,1.0,2023-03-24_17h41.39.881,stress,2023.1.0,60.09236196099581,
5,2,1,4,3,0,4,5,3,5,0,3,0,0,1,1,0,110,110,110,up,1,1.5396235999978671,None,,,,pil_004,002,0.5,1.0,2023-03-24_17h41.39.881,stress,2023.1.0,60.09236196099581,
5,1,2,0,3,4,4,6,5,0,6,0,0,1,0,1,0,111,111,111,left,1,1.1174919000004593,None,,,,pil_004,002,0.5,1.0,2023-03-24_17h41.39.881,stress,2023.1.0,60.09236196099581,
5,4,1,0,2,3,4,5,3,6,5,0,0,0,0,1,0,112,112,112,left,1,0.8720016000006581,None,,,,pil_004,002,0.5,1.0,2023-03-24_17h41.39.881,stress,2023.1.0,60.09236196099581,
4,3,5,2,1,0,4,0,5,6,5,3,1,1,1,1,0,113,113,113,up,1,0.6088811000008718,None,,,,pil_004,002,0.5,1.0,2023-03-24_17h41.39.881,stress,2023.1.0,60.09236196099581,
4,3,0,1,2,5,4,6,0,3,0,5,1,1,1,1,0,114,114,114,up,1,0.5000212999984797,None,,,,pil_004,002,0.5,1.0,2023-03-24_17h41.39.881,stress,2023.1.0,60.09236196099581,
4,5,2,1,3,0,4,3,0,3,0,6,0,0,1,1,0,115,115,115,up,1,0.5174761999987822,None,,,,pil_004,002,0.5,1.0,2023-03-24_17h41.39.881,stress,2023.1.0,60.09236196099581,
5,3,0,4,2,1,4,0,6,5,5,0,1,1,1,1,0,116,116,116,up,1,1.433196499998303,None,,,,pil_004,002,0.5,1.0,2023-03-24_17h41.39.881,stress,2023.1.0,60.09236196099581,
2,4,0,1,3,5,4,0,5,5,0,3,0,0,0,1,0,117,117,117,left,1,1.7265970000007655,None,,,,pil_004,002,0.5,1.0,2023-03-24_17h41.39.881,stress,2023.1.0,60.09236196099581,
4,5,3,1,2,0,4,3,6,5,3,0,0,0,1,1,0,118,118,118,up,1,1.4103963000015938,None,,,,pil_004,002,0.5,1.0,2023-03-24_17h41.39.881,stress,2023.1.0,60.09236196099581,
2,0,5,4,1,3,4,5,3,0,6,3,1,1,0,1,0,119,119,119,left,1,1.9809065000008559,space,3.231772200000705,,,pil_004,002,0.5,1.0,2023-03-24_17h41.39.881,stress,2023.1.0,60.09236196099581,
3,5,1,4,0,2,4,5,0,6,3,6,1,1,0,1,0,120,120,120,left,1,2.287628499998391,None,,,,pil_004,002,0.5,1.0,2023-03-24_17h41.39.881,stress,2023.1.0,60.09236196099581,
0,1,3,5,2,4,4,5,3,0,6,0,1,0,0,1,0,121,121,121,left,1,1.023934900000313,None,,,,pil_004,002,0.5,1.0,2023-03-24_17h41.39.881,stress,2023.1.0,60.09236196099581,
0,1,4,3,5,2,4,3,5,3,0,6,1,0,1,1,0,122,122,122,up,1,1.0188715000003867,None,,,,pil_004,002,0.5,1.0,2023-03-24_17h41.39.881,stress,2023.1.0,60.09236196099581,
3,4,0,1,2,5,4,0,3,5,6,3,1,1,1,1,0,123,123,123,up,1,0.7248077000003832,None,,,,pil_004,002,0.5,1.0,2023-03-24_17h41.39.881,stress,2023.1.0,60.09236196099581,
1,0,3,4,2,5,4,0,6,3,3,0,1,0,1,1,0,124,124,124,up,1,1.4314086999984283,None,,,,pil_004,002,0.5,1.0,2023-03-24_17h41.39.881,stress,2023.1.0,60.09236196099581,
2,0,5,4,3,1,4,3,5,6,0,5,1,0,1,1,0,125,125,125,up,1,0.944555300000502,None,,,,pil_004,002,0.5,1.0,2023-03-24_17h41.39.881,stress,2023.1.0,60.09236196099581,
2,0,5,3,4,1,4,0,5,0,3,6,1,0,1,1,0,126,126,126,up,1,0.5062655000001541,None,,,,pil_004,002,0.5,1.0,2023-03-24_17h41.39.881,stress,2023.1.0,60.09236196099581,
0,4,3,1,2,5,4,0,3,6,6,5,0,1,0,1,0,127,127,127,left,1,1.5329759000014747,None,,,,pil_004,002,0.5,1.0,2023-03-24_17h41.39.881,stress,2023.1.0,60.09236196099581,
3,5,2,4,1,0,4,0,3,6,6,0,1,1,0,1,0,128,128,128,left,1,0.8703071000018099,None,,,,pil_004,002,0.5,1.0,2023-03-24_17h41.39.881,stress,2023.1.0,60.09236196099581,
4,3,1,2,5,0,4,3,5,0,6,0,1,0,1,1,0,129,129,129,up,1,0.8792137999989791,None,,,,pil_004,002,0.5,1.0,2023-03-24_17h41.39.881,stress,2023.1.0,60.09236196099581,
4,0,3,1,5,2,4,0,5,5,0,3,1,0,1,1,0,130,130,130,up,1,0.9733753000000434,None,,,,pil_004,002,0.5,1.0,2023-03-24_17h41.39.881,stress,2023.1.0,60.09236196099581,
2,0,1,4,5,3,4,3,0,5,6,5,1,0,0,1,0,131,131,131,left,1,1.293449300002976,None,,,,pil_004,002,0.5,1.0,2023-03-24_17h41.39.881,stress,2023.1.0,60.09236196099581,
1,0,5,4,2,3,4,3,0,6,6,0,1,1,1,1,0,132,132,132,up,1,0.9183940000002622,None,,,,pil_004,002,0.5,1.0,2023-03-24_17h41.39.881,stress,2023.1.0,60.09236196099581,
1,2,3,0,5,4,4,3,5,5,0,6,1,0,0,1,0,133,133,133,left,1,0.6067675999984203,None,,,,pil_004,002,0.5,1.0,2023-03-24_17h41.39.881,stress,2023.1.0,60.09236196099581,
0,2,4,3,1,5,4,6,5,3,3,5,1,0,1,1,0,134,134,134,up,1,0.9407924999977695,None,,,,pil_004,002,0.5,1.0,2023-03-24_17h41.39.881,stress,2023.1.0,60.09236196099581,
4,1,5,3,2,0,4,0,5,6,5,3,1,1,1,1,0,135,135,135,up,1,2.4679016999980377,None,,,,pil_004,002,0.5,1.0,2023-03-24_17h41.39.881,stress,2023.1.0,60.09236196099581,
2,3,4,5,0,1,4,6,6,5,3,5,1,0,1,1,0,136,136,136,up,1,0.7531417999998666,None,,,,pil_004,002,0.5,1.0,2023-03-24_17h41.39.881,stress,2023.1.0,60.09236196099581,
0,3,2,1,5,4,4,6,5,0,3,3,0,0,1,1,0,137,137,137,up,1,1.3067286999976204,None,,,,pil_004,002,0.5,1.0,2023-03-24_17h41.39.881,stress,2023.1.0,60.09236196099581,
2,3,4,1,0,5,4,6,0,3,6,5,0,1,1,1,0,138,138,138,up,1,0.7592500999999174,None,,,,pil_004,002,0.5,1.0,2023-03-24_17h41.39.881,stress,2023.1.0,60.09236196099581,
4,3,5,0,1,2,4,0,0,3,6,5,1,1,1,1,0,139,139,139,up,1,0.914150200002041,None,,,,pil_004,002,0.5,1.0,2023-03-24_17h41.39.881,stress,2023.1.0,60.09236196099581,
5,1,4,3,2,0,4,0,3,6,6,0,0,1,1,1,0,140,140,140,up,1,0.9962051999973482,None,,,,pil_004,002,0.5,1.0,2023-03-24_17h41.39.881,stress,2023.1.0,60.09236196099581,
2,3,4,1,5,0,4,0,0,3,6,5,1,0,0,1,0,141,141,141,left,1,0.8156254999994417,None,,,,pil_004,002,0.5,1.0,2023-03-24_17h41.39.881,stress,2023.1.0,60.09236196099581,
2,4,3,0,5,1,4,3,6,6,0,3,0,1,0,1,0,142,142,142,left,1,0.5012761999969371,None,,,,pil_004,002,0.5,1.0,2023-03-24_17h41.39.881,stress,2023.1.0,60.09236196099581,
0,3,4,1,2,5,4,0,3,5,6,0,1,0,1,1,0,143,143,143,up,1,1.58970810000028,None,,,,pil_004,002,0.5,1.0,2023-03-24_17h41.39.881,stress,2023.1.0,60.09236196099581,
2,5,4,3,0,1,4,5,5,6,6,0,1,0,0,1,0,144,144,144,left,1,0.6320850000010978,None,,,,pil_004,002,0.5,1.0,2023-03-24_17h41.39.881,stress,2023.1.0,60.09236196099581,
3,5,1,2,0,4,4,0,3,3,6,5,1,1,1,1,0,145,145,145,up,1,0.9015218999993522,None,,,,pil_004,002,0.5,1.0,2023-03-24_17h41.39.881,stress,2023.1.0,60.09236196099581,
1,2,0,4,5,3,4,3,6,3,0,5,0,1,0,1,0,146,146,146,left,1,1.075246899999911,None,,,,pil_004,002,0.5,1.0,2023-03-24_17h41.39.881,stress,2023.1.0,60.09236196099581,
4,0,5,3,1,2,4,5,6,0,6,0,1,1,0,1,0,147,147,147,left,1,1.0974559999995108,None,,,,pil_004,002,0.5,1.0,2023-03-24_17h41.39.881,stress,2023.1.0,60.09236196099581,
0,2,1,5,3,4,4,0,3,6,5,3,0,0,0,1,0,148,148,148,left,1,0.9414799999976822,None,,,,pil_004,002,0.5,1.0,2023-03-24_17h41.39.881,stress,2023.1.0,60.09236196099581,
3,5,0,2,4,1,4,3,3,5,6,0,1,0,0,1,0,149,149,149,left,1,0.7546548999998777,None,,,,pil_004,002,0.5,1.0,2023-03-24_17h41.39.881,stress,2023.1.0,60.09236196099581,
1,5,0,3,4,2,4,0,6,6,5,3,1,0,1,1,0,150,150,150,up,1,1.099467600000935,None,,,,pil_004,002,0.5,1.0,2023-03-24_17h41.39.881,stress,2023.1.0,60.09236196099581,
2,3,1,0,5,4,4,3,0,6,6,5,0,1,1,1,0,151,151,151,up,1,0.5402423999985331,None,,,,pil_004,002,0.5,1.0,2023-03-24_17h41.39.881,stress,2023.1.0,60.09236196099581,
3,1,5,4,2,0,4,0,3,0,6,3,0,0,1,1,0,152,152,152,up,1,0.714544599999499,None,,,,pil_004,002,0.5,1.0,2023-03-24_17h41.39.881,stress,2023.1.0,60.09236196099581,
1,5,3,4,0,2,4,5,6,0,0,3,1,0,1,1,0,153,153,153,up,1,1.4184817999994266,None,,,,pil_004,002,0.5,1.0,2023-03-24_17h41.39.881,stress,2023.1.0,60.09236196099581,
1,0,3,2,4,5,4,3,6,0,0,3,0,1,0,1,0,154,154,154,left,1,0.7366019000000961,None,,,,pil_004,002,0.5,1.0,2023-03-24_17h41.39.881,stress,2023.1.0,60.09236196099581,
2,5,4,3,1,0,4,0,3,6,5,6,0,0,1,1,0,155,155,155,up,1,0.8175042000002577,None,,,,pil_004,002,0.5,1.0,2023-03-24_17h41.39.881,stress,2023.1.0,60.09236196099581,
0,1,3,5,4,2,4,6,0,3,0,5,1,1,1,1,0,156,156,156,up,1,0.8684786999983771,None,,,,pil_004,002,0.5,1.0,2023-03-24_17h41.39.881,stress,2023.1.0,60.09236196099581,
1,4,3,2,5,0,4,3,5,0,0,6,1,1,0,1,0,157,157,157,left,1,0.8214235000014014,None,,,,pil_004,002,0.5,1.0,2023-03-24_17h41.39.881,stress,2023.1.0,60.09236196099581,
3,4,5,1,2,0,4,0,6,5,3,6,0,1,1,1,0,158,158,158,up,1,0.8538267000003543,None,,,,pil_004,002,0.5,1.0,2023-03-24_17h41.39.881,stress,2023.1.0,60.09236196099581,
3,1,5,4,2,0,4,6,3,0,6,3,1,0,1,1,0,159,159,159,left,0,0.6191374999980326,space,2.357536399998935,,,pil_004,002,0.5,1.0,2023-03-24_17h41.39.881,stress,2023.1.0,60.09236196099581,
5,4,1,3,0,2,4,5,3,6,6,0,1,0,0,1,0,160,160,160,left,1,1.386130700000649,None,,,,pil_004,002,0.5,1.0,2023-03-24_17h41.39.881,stress,2023.1.0,60.09236196099581,
3,2,0,5,1,4,4,5,5,6,0,3,0,0,1,1,0,161,161,161,up,1,1.3714379000011832,None,,,,pil_004,002,0.5,1.0,2023-03-24_17h41.39.881,stress,2023.1.0,60.09236196099581,
1,4,0,2,3,5,4,0,6,5,5,0,1,1,0,1,0,162,162,162,left,1,1.4621996999994735,None,,,,pil_004,002,0.5,1.0,2023-03-24_17h41.39.881,stress,2023.1.0,60.09236196099581,
2,1,5,3,0,4,4,5,3,5,0,0,1,1,0,1,0,163,163,163,left,1,0.7662282999990566,None,,,,pil_004,002,0.5,1.0,2023-03-24_17h41.39.881,stress,2023.1.0,60.09236196099581,
0,2,3,5,4,1,4,5,6,3,0,3,0,0,0,1,0,164,164,164,left,1,1.493158900000708,None,,,,pil_004,002,0.5,1.0,2023-03-24_17h41.39.881,stress,2023.1.0,60.09236196099581,
1,0,2,5,3,4,4,6,0,3,0,5,0,0,1,1,0,165,165,165,up,1,0.9640239000000292,None,,,,pil_004,002,0.5,1.0,2023-03-24_17h41.39.881,stress,2023.1.0,60.09236196099581,
4,3,5,1,2,0,4,3,5,3,6,6,1,1,1,1,0,166,166,166,up,1,1.0391868999977305,None,,,,pil_004,002,0.5,1.0,2023-03-24_17h41.39.881,stress,2023.1.0,60.09236196099581,
0,4,3,5,2,1,4,6,3,5,0,3,1,1,1,1,0,167,167,167,up,1,1.4619029999994382,None,,,,pil_004,002,0.5,1.0,2023-03-24_17h41.39.881,stress,2023.1.0,60.09236196099581,
1,4,2,3,5,0,4,6,6,0,5,5,0,1,0,1,0,168,168,168,left,1,0.8962892000017746,None,,,,pil_004,002,0.5,1.0,2023-03-24_17h41.39.881,stress,2023.1.0,60.09236196099581,
2,5,1,4,3,0,4,5,0,3,6,5,0,1,0,1,0,169,169,169,left,1,0.8018257000003359,None,,,,pil_004,002,0.5,1.0,2023-03-24_17h41.39.881,stress,2023.1.0,60.09236196099581,
4,0,2,1,5,3,4,5,6,5,0,6,1,1,0,1,0,170,170,170,left,1,1.446160299998155,None,,,,pil_004,002,0.5,1.0,2023-03-24_17h41.39.881,stress,2023.1.0,60.09236196099581,
2,4,0,5,3,1,4,3,3,6,5,0,1,0,0,1,0,171,171,171,left,1,0.5168044999991253,None,,,,pil_004,002,0.5,1.0,2023-03-24_17h41.39.881,stress,2023.1.0,60.09236196099581,
5,3,2,1,0,4,4,6,3,0,0,5,0,0,1,1,0,172,172,172,up,1,1.2980568999992101,None,,,,pil_004,002,0.5,1.0,2023-03-24_17h41.39.881,stress,2023.1.0,60.09236196099581,
3,0,4,2,5,1,4,3,5,6,6,3,0,0,1,1,0,173,173,173,up,1,1.0405691000014485,None,,,,pil_004,002,0.5,1.0,2023-03-24_17h41.39.881,stress,2023.1.0,60.09236196099581,
4,2,3,1,5,0,4,5,6,0,5,3,1,0,1,1,0,174,174,174,up,1,1.1882814000018698,None,,,,pil_004,002,0.5,1.0,2023-03-24_17h41.39.881,stress,2023.1.0,60.09236196099581,
3,1,4,5,2,0,4,6,0,3,5,5,1,0,0,1,0,175,175,175,left,1,1.0548793000016303,None,,,,pil_004,002,0.5,1.0,2023-03-24_17h41.39.881,stress,2023.1.0,60.09236196099581,
2,5,1,0,4,3,4,6,0,5,0,6,0,1,0,1,0,176,176,176,left,1,0.8436636999977054,None,,,,pil_004,002,0.5,1.0,2023-03-24_17h41.39.881,stress,2023.1.0,60.09236196099581,
4,1,0,3,2,5,4,0,3,3,6,5,1,1,0,1,0,177,177,177,left,1,2.3975742000002356,None,,,,pil_004,002,0.5,1.0,2023-03-24_17h41.39.881,stress,2023.1.0,60.09236196099581,
5,2,3,1,4,0,4,6,6,0,3,5,1,1,1,1,0,178,178,178,up,1,1.171043300000747,None,,,,pil_004,002,0.5,1.0,2023-03-24_17h41.39.881,stress,2023.1.0,60.09236196099581,
4,0,5,3,1,2,4,5,6,3,0,0,0,1,0,1,0,179,179,179,left,1,1.710919000001013,None,,,,pil_004,002,0.5,1.0,2023-03-24_17h41.39.881,stress,2023.1.0,60.09236196099581,
0,4,5,2,1,3,4,5,0,6,3,0,1,1,0,1,0,180,180,180,left,1,0.9809986999971443,None,,,,pil_004,002,0.5,1.0,2023-03-24_17h41.39.881,stress,2023.1.0,60.09236196099581,
3,1,2,4,5,0,4,6,5,0,6,3,1,1,1,1,0,181,181,181,up,1,1.5216999000003852,None,,,,pil_004,002,0.5,1.0,2023-03-24_17h41.39.881,stress,2023.1.0,60.09236196099581,
4,0,3,5,2,1,4,5,0,6,0,3,1,1,1,1,0,182,182,182,up,1,0.8299554000004719,None,,,,pil_004,002,0.5,1.0,2023-03-24_17h41.39.881,stress,2023.1.0,60.09236196099581,
4,1,5,0,3,2,4,3,6,6,0,5,1,1,0,1,0,183,183,183,left,1,1.1764732999981788,None,,,,pil_004,002,0.5,1.0,2023-03-24_17h41.39.881,stress,2023.1.0,60.09236196099581,
4,1,0,3,5,2,4,0,0,3,3,6,1,0,1,1,0,184,184,184,up,1,0.7662130999997316,None,,,,pil_004,002,0.5,1.0,2023-03-24_17h41.39.881,stress,2023.1.0,60.09236196099581,
1,2,3,0,5,4,4,3,3,6,0,0,0,1,1,1,0,185,185,185,up,1,1.093000299999403,None,,,,pil_004,002,0.5,1.0,2023-03-24_17h41.39.881,stress,2023.1.0,60.09236196099581,
4,3,5,2,0,1,4,6,0,3,5,6,0,0,1,1,0,186,186,186,up,1,1.3606441999982053,None,,,,pil_004,002,0.5,1.0,2023-03-24_17h41.39.881,stress,2023.1.0,60.09236196099581,
0,2,3,5,1,4,4,5,6,5,3,3,0,1,0,1,0,187,187,187,left,1,1.7514690999996674,None,,,,pil_004,002,0.5,1.0,2023-03-24_17h41.39.881,stress,2023.1.0,60.09236196099581,
2,0,3,4,5,1,4,0,3,3,6,6,1,1,1,1,0,188,188,188,up,1,1.6558136999992712,None,,,,pil_004,002,0.5,1.0,2023-03-24_17h41.39.881,stress,2023.1.0,60.09236196099581,
1,5,4,3,2,0,4,3,3,6,0,0,0,1,0,1,0,189,189,189,left,1,1.1358966000007058,None,,,,pil_004,002,0.5,1.0,2023-03-24_17h41.39.881,stress,2023.1.0,60.09236196099581,
2,4,5,3,1,0,4,3,6,5,5,6,1,1,0,1,0,190,190,190,left,1,1.001239600002009,None,,,,pil_004,002,0.5,1.0,2023-03-24_17h41.39.881,stress,2023.1.0,60.09236196099581,
5,0,4,1,2,3,4,3,3,6,5,0,0,1,1,1,0,191,191,191,up,1,1.3869134000015038,None,,,,pil_004,002,0.5,1.0,2023-03-24_17h41.39.881,stress,2023.1.0,60.09236196099581,
1,2,5,3,0,4,4,3,0,3,6,5,1,1,1,1,0,192,192,192,up,1,0.6547346000006655,None,,,,pil_004,002,0.5,1.0,2023-03-24_17h41.39.881,stress,2023.1.0,60.09236196099581,
2,4,5,0,3,1,4,0,0,3,5,6,0,0,0,1,0,193,193,193,left,1,0.8069423999986611,None,,,,pil_004,002,0.5,1.0,2023-03-24_17h41.39.881,stress,2023.1.0,60.09236196099581,
1,3,0,2,4,5,4,0,6,5,6,3,1,1,0,1,0,194,194,194,left,1,0.966998900003091,None,,,,pil_004,002,0.5,1.0,2023-03-24_17h41.39.881,stress,2023.1.0,60.09236196099581,
2,4,0,1,3,5,4,6,5,0,3,3,0,0,1,1,0,195,195,195,up,1,2.265212499998597,None,,,,pil_004,002,0.5,1.0,2023-03-24_17h41.39.881,stress,2023.1.0,60.09236196099581,
2,5,3,1,0,4,4,5,6,3,0,0,1,1,0,1,0,196,196,196,left,1,0.5153449999997974,None,,,,pil_004,002,0.5,1.0,2023-03-24_17h41.39.881,stress,2023.1.0,60.09236196099581,
5,1,2,3,0,4,4,3,5,6,0,5,0,0,0,1,0,197,197,197,left,1,1.4811979999976757,None,,,,pil_004,002,0.5,1.0,2023-03-24_17h41.39.881,stress,2023.1.0,60.09236196099581,
5,1,2,0,3,4,4,6,0,3,5,3,0,0,0,1,0,198,198,198,left,1,1.4568648999993457,None,,,,pil_004,002,0.5,1.0,2023-03-24_17h41.39.881,stress,2023.1.0,60.09236196099581,
1,4,0,2,3,5,4,3,3,0,5,5,1,0,0,1,0,199,199,199,left,1,1.4866689999980736,space,2.083489399999962,,,pil_004,002,0.5,1.0,2023-03-24_17h41.39.881,stress,2023.1.0,60.09236196099581,
2,3,4,1,0,5,4,5,3,0,3,6,0,0,1,1,0,200,200,200,up,1,0.6655549999995856,None,,,,pil_004,002,0.5,1.0,2023-03-24_17h41.39.881,stress,2023.1.0,60.09236196099581,
4,0,5,1,2,3,4,6,6,0,3,5,0,0,1,1,0,201,201,201,up,1,1.0125088000022515,None,,,,pil_004,002,0.5,1.0,2023-03-24_17h41.39.881,stress,2023.1.0,60.09236196099581,
5,1,2,3,4,0,4,5,0,6,3,0,0,0,1,1,0,202,202,202,up,1,1.3398687999979302,None,,,,pil_004,002,0.5,1.0,2023-03-24_17h41.39.881,stress,2023.1.0,60.09236196099581,
4,2,5,0,3,1,4,3,3,5,0,0,0,0,1,1,0,203,203,203,up,1,1.493726799999422,None,,,,pil_004,002,0.5,1.0,2023-03-24_17h41.39.881,stress,2023.1.0,60.09236196099581,
5,3,1,2,0,4,4,3,0,6,6,3,1,0,1,1,0,204,204,204,up,1,1.265760300000693,None,,,,pil_004,002,0.5,1.0,2023-03-24_17h41.39.881,stress,2023.1.0,60.09236196099581,
2,4,1,5,3,0,4,3,0,6,5,0,0,1,0,1,0,205,205,205,left,1,0.6460642000020016,None,,,,pil_004,002,0.5,1.0,2023-03-24_17h41.39.881,stress,2023.1.0,60.09236196099581,
4,5,1,2,3,0,4,0,5,5,0,6,1,1,0,1,0,206,206,206,left,1,1.3294263999996474,None,,,,pil_004,002,0.5,1.0,2023-03-24_17h41.39.881,stress,2023.1.0,60.09236196099581,
4,3,2,0,1,5,4,0,6,6,0,3,1,1,0,1,0,207,207,207,left,1,0.8513108000006469,None,,,,pil_004,002,0.5,1.0,2023-03-24_17h41.39.881,stress,2023.1.0,60.09236196099581,
3,5,2,1,4,0,4,5,6,0,6,0,1,1,0,1,0,208,208,208,left,1,0.7791216999976314,None,,,,pil_004,002,0.5,1.0,2023-03-24_17h41.39.881,stress,2023.1.0,60.09236196099581,
3,5,1,2,4,0,4,5,5,3,6,6,1,1,1,1,0,209,209,209,up,1,1.634285699998145,None,,,,pil_004,002,0.5,1.0,2023-03-24_17h41.39.881,stress,2023.1.0,60.09236196099581,
0,2,3,5,1,4,4,5,6,0,6,3,0,1,0,1,0,210,210,210,left,1,1.2987900000007357,None,,,,pil_004,002,0.5,1.0,2023-03-24_17h41.39.881,stress,2023.1.0,60.09236196099581,
2,3,1,0,5,4,4,5,3,3,5,6,1,0,0,1,0,211,211,211,left,1,0.6386409000006097,None,,,,pil_004,002,0.5,1.0,2023-03-24_17h41.39.881,stress,2023.1.0,60.09236196099581,
2,3,4,1,5,0,4,3,5,0,5,3,1,1,0,1,0,212,212,212,left,1,0.5656306999990193,None,,,,pil_004,002,0.5,1.0,2023-03-24_17h41.39.881,stress,2023.1.0,60.09236196099581,
1,0,3,5,4,2,4,3,6,3,0,6,0,1,1,1,0,213,213,213,up,1,1.5946490999995149,None,,,,pil_004,002,0.5,1.0,2023-03-24_17h41.39.881,stress,2023.1.0,60.09236196099581,
3,4,5,1,0,2,4,5,3,0,6,0,1,0,1,1,0,214,214,214,up,1,0.5888474999992468,None,,,,pil_004,002,0.5,1.0,2023-03-24_17h41.39.881,stress,2023.1.0,60.09236196099581,
2,3,0,5,1,4,4,0,3,5,6,6,0,0,1,1,0,215,215,215,up,1,0.4976390000010724,None,,,,pil_004,002,0.5,1.0,2023-03-24_17h41.39.881,stress,2023.1.0,60.09236196099581,
0,2,5,4,3,1,4,5,0,0,5,6,0,0,1,1,0,216,216,216,up,1,1.0796649999974761,None,,,,pil_004,002,0.5,1.0,2023-03-24_17h41.39.881,stress,2023.1.0,60.09236196099581,
2,0,1,5,4,3,4,6,0,5,3,6,1,1,1,1,0,217,217,217,up,1,0.536544499998854,None,,,,pil_004,002,0.5,1.0,2023-03-24_17h41.39.881,stress,2023.1.0,60.09236196099581,
3,2,5,0,4,1,4,3,6,6,0,0,0,1,0,1,0,218,218,218,left,1,0.9200703000024077,None,,,,pil_004,002,0.5,1.0,2023-03-24_17h41.39.881,stress,2023.1.0,60.09236196099581,
0,2,1,3,5,4,4,3,3,6,5,6,1,1,1,1,0,219,219,219,up,1,1.099843600000895,None,,,,pil_004,002,0.5,1.0,2023-03-24_17h41.39.881,stress,2023.1.0,60.09236196099581,
5,1,3,4,2,0,4,0,0,5,6,6,1,0,0,1,0,220,220,220,left,1,1.1106910000016796,None,,,,pil_004,002,0.5,1.0,2023-03-24_17h41.39.881,stress,2023.1.0,60.09236196099581,
4,0,2,1,3,5,4,6,3,5,5,0,1,0,1,1,0,221,221,221,up,1,1.1594087999983458,None,,,,pil_004,002,0.5,1.0,2023-03-24_17h41.39.881,stress,2023.1.0,60.09236196099581,
2,4,3,5,1,0,4,3,0,3,6,5,1,0,0,1,0,222,222,222,left,1,0.5521497000008821,None,,,,pil_004,002,0.5,1.0,2023-03-24_17h41.39.881,stress,2023.1.0,60.09236196099581,
4,0,3,5,1,2,4,5,6,6,3,5,0,1,1,1,0,223,223,223,up,1,1.8979173000006995,None,,,,pil_004,002,0.5,1.0,2023-03-24_17h41.39.881,stress,2023.1.0,60.09236196099581,
0,1,3,5,2,4,4,0,0,6,5,3,1,1,1,1,0,224,224,224,up,1,1.4012351000019407,None,,,,pil_004,002,0.5,1.0,2023-03-24_17h41.39.881,stress,2023.1.0,60.09236196099581,
1,5,3,4,0,2,4,3,3,6,0,5,0,0,0,1,0,225,225,225,left,1,1.3271066999986942,None,,,,pil_004,002,0.5,1.0,2023-03-24_17h41.39.881,stress,2023.1.0,60.09236196099581,
0,2,1,5,3,4,4,0,3,6,5,0,0,0,1,1,0,226,226,226,up,1,0.9719315000002098,None,,,,pil_004,002,0.5,1.0,2023-03-24_17h41.39.881,stress,2023.1.0,60.09236196099581,
5,0,1,4,2,3,4,5,0,3,3,0,1,0,0,1,0,227,227,227,left,1,2.033106700000644,None,,,,pil_004,002,0.5,1.0,2023-03-24_17h41.39.881,stress,2023.1.0,60.09236196099581,
3,4,5,0,2,1,4,3,5,0,6,5,0,1,0,1,0,228,228,228,left,1,0.8003730999989784,None,,,,pil_004,002,0.5,1.0,2023-03-24_17h41.39.881,stress,2023.1.0,60.09236196099581,
2,3,5,0,1,4,4,3,6,3,5,0,0,1,0,1,0,229,229,229,left,1,0.8092302000004565,None,,,,pil_004,002,0.5,1.0,2023-03-24_17h41.39.881,stress,2023.1.0,60.09236196099581,
2,0,1,3,4,5,4,0,5,6,5,3,0,0,0,1,0,230,230,230,up,0,0.885598700002447,None,,,,pil_004,002,0.5,1.0,2023-03-24_17h41.39.881,stress,2023.1.0,60.09236196099581,
2,3,5,0,1,4,4,5,3,0,0,5,0,1,0,1,0,231,231,231,left,1,0.542344100002083,None,,,,pil_004,002,0.5,1.0,2023-03-24_17h41.39.881,stress,2023.1.0,60.09236196099581,
3,2,4,0,5,1,4,6,5,5,0,0,0,0,1,1,0,232,232,232,up,1,1.1167104999985895,None,,,,pil_004,002,0.5,1.0,2023-03-24_17h41.39.881,stress,2023.1.0,60.09236196099581,
2,5,4,1,0,3,4,6,6,0,5,3,1,1,1,1,0,233,233,233,up,1,0.5855938999993668,None,,,,pil_004,002,0.5,1.0,2023-03-24_17h41.39.881,stress,2023.1.0,60.09236196099581,
4,1,0,2,3,5,4,5,3,0,3,6,0,0,1,1,0,234,234,234,up,1,1.8310879999989993,None,,,,pil_004,002,0.5,1.0,2023-03-24_17h41.39.881,stress,2023.1.0,60.09236196099581,
5,0,1,4,2,3,4,3,6,6,3,5,1,0,1,1,0,235,235,235,up,1,1.1677214999981516,None,,,,pil_004,002,0.5,1.0,2023-03-24_17h41.39.881,stress,2023.1.0,60.09236196099581,
3,2,4,0,5,1,4,6,3,6,0,3,0,1,0,1,0,236,236,236,left,1,1.3865014000002702,None,,,,pil_004,002,0.5,1.0,2023-03-24_17h41.39.881,stress,2023.1.0,60.09236196099581,
2,1,5,3,4,0,4,6,0,3,5,5,0,0,0,1,0,237,237,237,left,1,1.0139709000031871,None,,,,pil_004,002,0.5,1.0,2023-03-24_17h41.39.881,stress,2023.1.0,60.09236196099581,
2,3,5,4,0,1,4,0,0,3,5,6,1,1,0,1,0,238,238,238,left,1,0.5636747999997169,None,,,,pil_004,002,0.5,1.0,2023-03-24_17h41.39.881,stress,2023.1.0,60.09236196099581,
3,5,2,1,4,0,4,3,5,0,6,6,1,1,1,1,0,239,239,239,up,1,0.8333706999983406,space,1.927549200001522,,,pil_004,002,0.5,1.0,2023-03-24_17h41.39.881,stress,2023.1.0,60.09236196099581,
5,0,3,2,4,1,4,3,5,6,0,0,0,0,0,1,0,240,240,240,left,1,1.2389075999999477,None,,,,pil_004,002,0.5,1.0,2023-03-24_17h41.39.881,stress,2023.1.0,60.09236196099581,
1,5,2,4,0,3,4,5,0,6,6,3,0,0,1,1,0,241,241,241,up,1,0.9472396999990451,None,,,,pil_004,002,0.5,1.0,2023-03-24_17h41.39.881,stress,2023.1.0,60.09236196099581,
3,0,4,5,1,2,4,5,3,5,0,6,1,0,1,1,0,242,242,242,up,1,0.9063698999998451,None,,,,pil_004,002,0.5,1.0,2023-03-24_17h41.39.881,stress,2023.1.0,60.09236196099581,
2,1,3,0,4,5,4,3,5,3,0,6,0,1,0,1,0,243,243,243,left,1,0.9170508000024711,None,,,,pil_004,002,0.5,1.0,2023-03-24_17h41.39.881,stress,2023.1.0,60.09236196099581,
3,4,2,1,0,5,4,3,5,0,3,5,1,0,1,1,0,244,244,244,up,1,0.875793800001702,None,,,,pil_004,002,0.5,1.0,2023-03-24_17h41.39.881,stress,2023.1.0,60.09236196099581,
2,1,5,3,0,4,4,5,3,5,0,3,1,1,0,1,0,245,245,245,left,1,0.9959233999979915,None,,,,pil_004,002,0.5,1.0,2023-03-24_17h41.39.881,stress,2023.1.0,60.09236196099581,
1,5,2,3,0,4,4,0,3,6,5,0,0,0,0,1,0,246,246,246,left,1,1.097377599999163,None,,,,pil_004,002,0.5,1.0,2023-03-24_17h41.39.881,stress,2023.1.0,60.09236196099581,
5,3,1,4,0,2,4,6,5,3,5,6,0,0,0,1,0,247,247,247,left,1,1.5495054999992135,None,,,,pil_004,002,0.5,1.0,2023-03-24_17h41.39.881,stress,2023.1.0,60.09236196099581,
2,3,1,4,0,5,4,6,0,3,5,3,0,0,0,1,0,248,248,248,left,1,0.7101014999971085,None,,,,pil_004,002,0.5,1.0,2023-03-24_17h41.39.881,stress,2023.1.0,60.09236196099581,
2,3,5,1,0,4,4,0,3,5,6,6,1,1,1,1,0,249,249,249,up,1,0.7086410999982036,None,,,,pil_004,002,0.5,1.0,2023-03-24_17h41.39.881,stress,2023.1.0,60.09236196099581,
4,3,2,5,0,1,4,6,5,3,0,0,1,0,1,1,0,250,250,250,up,1,0.8883381999985431,None,,,,pil_004,002,0.5,1.0,2023-03-24_17h41.39.881,stress,2023.1.0,60.09236196099581,
2,5,1,4,3,0,4,3,3,5,0,6,0,0,1,1,0,251,251,251,up,1,0.5737554000006639,None,,,,pil_004,002,0.5,1.0,2023-03-24_17h41.39.881,stress,2023.1.0,60.09236196099581,
0,2,5,3,4,1,4,5,0,3,6,6,1,0,1,1,0,252,252,252,up,1,0.9899212999989686,None,,,,pil_004,002,0.5,1.0,2023-03-24_17h41.39.881,stress,2023.1.0,60.09236196099581,
5,3,2,4,1,0,4,6,5,3,0,0,0,0,0,1,0,253,253,253,left,1,1.1999484000007214,None,,,,pil_004,002,0.5,1.0,2023-03-24_17h41.39.881,stress,2023.1.0,60.09236196099581,
5,3,4,0,1,2,4,6,5,5,0,3,0,1,0,1,0,254,254,254,left,1,1.4201037999991968,None,,,,pil_004,002,0.5,1.0,2023-03-24_17h41.39.881,stress,2023.1.0,60.09236196099581,
3,5,2,4,0,1,4,6,5,0,3,5,1,0,1,1,0,255,255,255,up,1,1.2471482000000833,None,,,,pil_004,002,0.5,1.0,2023-03-24_17h41.39.881,stress,2023.1.0,60.09236196099581,
1,3,4,2,5,0,4,3,5,6,3,6,1,1,0,1,0,256,256,256,left,1,1.4322885000001406,None,,,,pil_004,002,0.5,1.0,2023-03-24_17h41.39.881,stress,2023.1.0,60.09236196099581,
1,4,5,0,3,2,4,0,3,6,5,3,0,0,0,1,0,257,257,257,left,1,0.6152421000006143,None,,,,pil_004,002,0.5,1.0,2023-03-24_17h41.39.881,stress,2023.1.0,60.09236196099581,
3,5,2,1,4,0,4,6,0,3,5,0,0,1,0,1,0,258,258,258,left,1,1.0374349000012444,None,,,,pil_004,002,0.5,1.0,2023-03-24_17h41.39.881,stress,2023.1.0,60.09236196099581,
5,3,4,0,2,1,4,3,5,5,3,6,1,1,1,1,0,259,259,259,up,1,1.31535889999941,None,,,,pil_004,002,0.5,1.0,2023-03-24_17h41.39.881,stress,2023.1.0,60.09236196099581,
1,5,2,4,3,0,4,3,0,3,6,5,0,1,1,1,0,260,260,260,up,1,0.7834365000016987,None,,,,pil_004,002,0.5,1.0,2023-03-24_17h41.39.881,stress,2023.1.0,60.09236196099581,
1,4,3,0,2,5,4,3,3,5,5,0,1,0,0,1,0,261,261,261,left,1,0.612030299998878,None,,,,pil_004,002,0.5,1.0,2023-03-24_17h41.39.881,stress,2023.1.0,60.09236196099581,
0,2,1,5,4,3,4,3,6,3,0,6,0,0,1,1,0,262,262,262,up,1,1.2583809000025212,None,,,,pil_004,002,0.5,1.0,2023-03-24_17h41.39.881,stress,2023.1.0,60.09236196099581,
5,0,4,1,2,3,4,3,3,5,0,6,1,1,0,1,0,263,263,263,left,1,1.7048813000001246,None,,,,pil_004,002,0.5,1.0,2023-03-24_17h41.39.881,stress,2023.1.0,60.09236196099581,
1,4,0,2,5,3,4,5,0,6,5,6,1,1,0,1,0,264,264,264,left,1,0.9138839000006556,None,,,,pil_004,002,0.5,1.0,2023-03-24_17h41.39.881,stress,2023.1.0,60.09236196099581,
2,1,4,5,0,3,4,6,5,0,6,0,0,1,0,1,0,265,265,265,left,1,1.0192573999993328,None,,,,pil_004,002,0.5,1.0,2023-03-24_17h41.39.881,stress,2023.1.0,60.09236196099581,
2,1,4,5,3,0,4,5,0,6,0,3,0,1,1,1,0,266,266,266,up,1,0.6219369999998889,None,,,,pil_004,002,0.5,1.0,2023-03-24_17h41.39.881,stress,2023.1.0,60.09236196099581,
1,3,0,2,5,4,4,6,3,5,6,3,0,0,0,1,0,267,267,267,left,1,1.8443019000005734,None,,,,pil_004,002,0.5,1.0,2023-03-24_17h41.39.881,stress,2023.1.0,60.09236196099581,
0,3,4,2,5,1,4,6,0,5,6,3,1,1,1,1,0,268,268,268,up,1,1.247363899998163,None,,,,pil_004,002,0.5,1.0,2023-03-24_17h41.39.881,stress,2023.1.0,60.09236196099581,
5,4,0,1,2,3,4,3,3,5,0,5,0,1,0,1,0,269,269,269,left,1,1.1631067999987863,None,,,,pil_004,002,0.5,1.0,2023-03-24_17h41.39.881,stress,2023.1.0,60.09236196099581,
5,2,4,3,0,1,4,5,6,3,0,5,0,0,1,1,0,270,270,270,up,1,1.3286057999976038,None,,,,pil_004,002,0.5,1.0,2023-03-24_17h41.39.881,stress,2023.1.0,60.09236196099581,
3,4,1,5,0,2,4,0,5,3,3,5,0,0,0,1,0,271,271,271,left,1,1.8053589000010106,None,,,,pil_004,002,0.5,1.0,2023-03-24_17h41.39.881,stress,2023.1.0,60.09236196099581,
3,0,2,5,1,4,4,3,0,6,3,5,0,1,1,1,0,272,272,272,up,1,1.05682909999814,None,,,,pil_004,002,0.5,1.0,2023-03-24_17h41.39.881,stress,2023.1.0,60.09236196099581,
5,1,0,2,4,3,4,3,6,0,5,3,0,1,0,1,0,273,273,273,left,1,1.3528845999971963,None,,,,pil_004,002,0.5,1.0,2023-03-24_17h41.39.881,stress,2023.1.0,60.09236196099581,
4,5,3,0,2,1,4,3,6,5,3,5,0,1,0,1,0,274,274,274,left,1,1.4885830999992322,None,,,,pil_004,002,0.5,1.0,2023-03-24_17h41.39.881,stress,2023.1.0,60.09236196099581,
3,5,1,0,2,4,4,5,6,0,3,3,0,0,1,1,0,275,275,275,up,1,0.7362568999997166,None,,,,pil_004,002,0.5,1.0,2023-03-24_17h41.39.881,stress,2023.1.0,60.09236196099581,
2,4,3,5,1,0,4,5,6,3,3,0,1,1,0,1,0,276,276,276,left,1,0.6153374999994412,None,,,,pil_004,002,0.5,1.0,2023-03-24_17h41.39.881,stress,2023.1.0,60.09236196099581,
3,4,0,1,5,2,4,5,3,0,5,6,0,0,0,1,0,277,277,277,left,1,0.862134099999821,None,,,,pil_004,002,0.5,1.0,2023-03-24_17h41.39.881,stress,2023.1.0,60.09236196099581,
1,4,2,5,3,0,4,5,6,3,3,5,0,0,1,1,0,278,278,278,up,1,1.0741369999996095,None,,,,pil_004,002,0.5,1.0,2023-03-24_17h41.39.881,stress,2023.1.0,60.09236196099581,
0,3,5,4,2,1,4,5,5,6,0,6,1,0,0,1,0,279,279,279,left,1,1.085080699998798,space,1.7947296000020287,,,pil_004,002,0.5,1.0,2023-03-24_17h41.39.881,stress,2023.1.0,60.09236196099581,
5,2,3,0,1,4,4,0,3,5,0,6,0,0,0,1,0,280,280,280,left,1,1.2220956999990449,None,,,,pil_004,002,0.5,1.0,2023-03-24_17h41.39.881,stress,2023.1.0,60.09236196099581,
4,2,0,3,5,1,4,3,6,6,0,5,0,0,0,1,0,281,281,281,left,1,1.2854356999996526,None,,,,pil_004,002,0.5,1.0,2023-03-24_17h41.39.881,stress,2023.1.0,60.09236196099581,
1,4,5,3,0,2,4,6,0,6,5,3,1,0,1,1,0,282,282,282,up,1,1.6608766999997897,None,,,,pil_004,002,0.5,1.0,2023-03-24_17h41.39.881,stress,2023.1.0,60.09236196099581,
2,5,3,4,0,1,4,3,3,5,6,6,1,0,1,1,0,283,283,283,up,1,1.6325240999976813,None,,,,pil_004,002,0.5,1.0,2023-03-24_17h41.39.881,stress,2023.1.0,60.09236196099581,
4,1,0,5,3,2,4,6,5,6,5,0,1,1,0,1,0,284,284,284,left,1,0.947505000000092,None,,,,pil_004,002,0.5,1.0,2023-03-24_17h41.39.881,stress,2023.1.0,60.09236196099581,
2,5,0,3,4,1,4,0,6,0,3,5,0,1,0,1,0,285,285,285,left,1,0.701248500001384,None,,,,pil_004,002,0.5,1.0,2023-03-24_17h41.39.881,stress,2023.1.0,60.09236196099581,
1,3,2,5,0,4,4,3,0,0,5,6,1,0,1,1,0,286,286,286,up,1,0.944039400001202,None,,,,pil_004,002,0.5,1.0,2023-03-24_17h41.39.881,stress,2023.1.0,60.09236196099581,
5,2,3,4,0,1,4,6,5,0,0,3,0,1,0,1,0,287,287,287,left,1,1.1902482000004966,None,,,,pil_004,002,0.5,1.0,2023-03-24_17h41.39.881,stress,2023.1.0,60.09236196099581,
1,2,5,3,4,0,4,5,3,0,6,0,1,0,0,1,0,288,288,288,left,1,1.6709950999975263,None,,,,pil_004,002,0.5,1.0,2023-03-24_17h41.39.881,stress,2023.1.0,60.09236196099581,
1,0,3,4,2,5,4,6,6,3,5,0,1,0,0,1,0,289,289,289,left,1,0.6604431999985536,None,,,,pil_004,002,0.5,1.0,2023-03-24_17h41.39.881,stress,2023.1.0,60.09236196099581,
3,1,0,5,2,4,4,6,0,6,3,5,0,0,1,1,0,290,290,290,up,1,1.2590171000010741,None,,,,pil_004,002,0.5,1.0,2023-03-24_17h41.39.881,stress,2023.1.0,60.09236196099581,
3,0,2,1,5,4,4,6,0,5,5,6,0,0,1,1,0,291,291,291,up,1,0.8544185999999172,None,,,,pil_004,002,0.5,1.0,2023-03-24_17h41.39.881,stress,2023.1.0,60.09236196099581,
3,4,1,5,2,0,4,6,3,6,0,0,0,1,1,1,0,292,292,292,up,1,0.5906642000009015,None,,,,pil_004,002,0.5,1.0,2023-03-24_17h41.39.881,stress,2023.1.0,60.09236196099581,
4,0,1,5,2,3,4,6,5,3,5,0,1,1,1,1,0,293,293,293,up,1,0.9361528999979782,None,,,,pil_004,002,0.5,1.0,2023-03-24_17h41.39.881,stress,2023.1.0,60.09236196099581,
4,1,0,5,2,3,4,3,3,0,6,6,1,1,0,1,0,294,294,294,left,1,0.8616326000010304,None,,,,pil_004,002,0.5,1.0,2023-03-24_17h41.39.881,stress,2023.1.0,60.09236196099581,
2,1,4,0,5,3,4,3,6,0,0,6,1,1,1,1,0,295,295,295,up,1,0.7473826999994344,None,,,,pil_004,002,0.5,1.0,2023-03-24_17h41.39.881,stress,2023.1.0,60.09236196099581,
4,3,0,1,5,2,4,3,5,3,5,0,0,1,0,1,0,296,296,296,left,1,1.7592628999991575,None,,,,pil_004,002,0.5,1.0,2023-03-24_17h41.39.881,stress,2023.1.0,60.09236196099581,
0,3,4,1,5,2,4,5,0,3,5,6,1,0,0,1,0,297,297,297,left,1,1.6018816999967385,None,,,,pil_004,002,0.5,1.0,2023-03-24_17h41.39.881,stress,2023.1.0,60.09236196099581,
2,1,4,3,0,5,4,0,0,3,5,6,1,0,0,1,0,298,298,298,left,1,1.2056929999998829,None,,,,pil_004,002,0.5,1.0,2023-03-24_17h41.39.881,stress,2023.1.0,60.09236196099581,
3,0,5,4,1,2,4,0,6,5,5,3,0,0,0,1,0,299,299,299,left,1,1.218551199999638,None,,,,pil_004,002,0.5,1.0,2023-03-24_17h41.39.881,stress,2023.1.0,60.09236196099581,
0,3,1,4,5,2,4,3,5,6,0,0,1,1,0,1,0,300,300,300,left,1,1.0802388999982213,None,,,,pil_004,002,0.5,1.0,2023-03-24_17h41.39.881,stress,2023.1.0,60.09236196099581,
0,4,1,3,2,5,4,5,6,0,5,3,0,0,1,1,0,301,301,301,up,1,1.0766774000003352,None,,,,pil_004,002,0.5,1.0,2023-03-24_17h41.39.881,stress,2023.1.0,60.09236196099581,
1,0,3,4,5,2,4,5,3,5,3,6,1,0,1,1,0,302,302,302,up,1,0.6756752000001143,None,,,,pil_004,002,0.5,1.0,2023-03-24_17h41.39.881,stress,2023.1.0,60.09236196099581,
5,4,2,3,1,0,4,3,5,6,0,5,0,1,1,1,0,303,303,303,up,1,1.61185309999928,None,,,,pil_004,002,0.5,1.0,2023-03-24_17h41.39.881,stress,2023.1.0,60.09236196099581,
3,2,5,0,1,4,4,5,0,3,6,6,0,0,0,1,0,304,304,304,left,1,1.3821267999992415,None,,,,pil_004,002,0.5,1.0,2023-03-24_17h41.39.881,stress,2023.1.0,60.09236196099581,
2,0,4,1,3,5,4,6,6,5,0,5,0,1,1,1,0,305,305,305,up,1,0.5535272999986773,None,,,,pil_004,002,0.5,1.0,2023-03-24_17h41.39.881,stress,2023.1.0,60.09236196099581,
5,0,4,1,2,3,4,3,5,0,5,3,0,1,1,1,0,306,306,306,up,1,1.409749099999317,None,,,,pil_004,002,0.5,1.0,2023-03-24_17h41.39.881,stress,2023.1.0,60.09236196099581,
4,5,3,1,0,2,4,0,6,3,5,0,0,0,1,1,0,307,307,307,up,1,1.5182475000001432,None,,,,pil_004,002,0.5,1.0,2023-03-24_17h41.39.881,stress,2023.1.0,60.09236196099581,
5,1,2,3,0,4,4,6,0,5,5,3,0,0,0,1,0,308,308,308,left,1,1.0837252999990596,None,,,,pil_004,002,0.5,1.0,2023-03-24_17h41.39.881,stress,2023.1.0,60.09236196099581,
1,4,3,5,2,0,4,6,5,5,6,0,1,1,0,1,0,309,309,309,left,1,0.7008166999985406,None,,,,pil_004,002,0.5,1.0,2023-03-24_17h41.39.881,stress,2023.1.0,60.09236196099581,
4,5,1,0,3,2,4,0,3,6,6,5,0,1,1,1,0,310,310,310,up,1,1.0377642999992531,None,,,,pil_004,002,0.5,1.0,2023-03-24_17h41.39.881,stress,2023.1.0,60.09236196099581,
5,1,3,2,4,0,4,0,0,3,6,5,1,1,1,1,0,311,311,311,up,1,0.8362425999985135,None,,,,pil_004,002,0.5,1.0,2023-03-24_17h41.39.881,stress,2023.1.0,60.09236196099581,
0,1,2,3,5,4,4,3,5,3,6,5,0,0,0,1,0,312,312,312,left,1,1.3751416000013705,None,,,,pil_004,002,0.5,1.0,2023-03-24_17h41.39.881,stress,2023.1.0,60.09236196099581,
2,1,0,5,3,4,4,3,5,0,6,6,1,0,0,1,0,313,313,313,left,1,1.4188135000003967,None,,,,pil_004,002,0.5,1.0,2023-03-24_17h41.39.881,stress,2023.1.0,60.09236196099581,
3,0,2,5,4,1,4,5,6,3,0,6,1,0,1,1,0,314,314,314,up,1,0.7732055999986187,None,,,,pil_004,002,0.5,1.0,2023-03-24_17h41.39.881,stress,2023.1.0,60.09236196099581,
3,5,0,4,1,2,4,5,0,6,3,0,1,0,1,1,0,315,315,315,up,1,0.5302716999976838,None,,,,pil_004,002,0.5,1.0,2023-03-24_17h41.39.881,stress,2023.1.0,60.09236196099581,
1,0,2,4,5,3,4,3,6,3,0,5,0,1,1,1,0,316,316,316,up,1,0.9516145000015968,None,,,,pil_004,002,0.5,1.0,2023-03-24_17h41.39.881,stress,2023.1.0,60.09236196099581,
0,5,1,4,2,3,4,3,6,6,3,5,1,0,1,1,0,317,317,317,up,1,1.1515392000001157,None,,,,pil_004,002,0.5,1.0,2023-03-24_17h41.39.881,stress,2023.1.0,60.09236196099581,
2,3,1,0,4,5,4,3,5,0,3,6,1,1,0,1,0,318,318,318,left,1,1.6940854000022227,None,,,,pil_004,002,0.5,1.0,2023-03-24_17h41.39.881,stress,2023.1.0,60.09236196099581,
1,2,3,4,5,0,4,5,0,5,0,3,0,1,0,1,0,319,319,319,left,1,0.7649582000012742,space,10.90549159999864,,,pil_004,002,0.5,1.0,2023-03-24_17h41.39.881,stress,2023.1.0,60.09236196099581,
1,5,3,0,4,2,4,0,6,0,5,5,0,0,1,1,0,320,320,320,up,1,0.881548000001203,None,,,,pil_004,002,0.5,1.0,2023-03-24_17h41.39.881,stress,2023.1.0,60.09236196099581,
0,4,5,2,1,3,4,3,3,6,5,6,1,0,0,1,0,321,321,321,left,1,0.8715711000004376,None,,,,pil_004,002,0.5,1.0,2023-03-24_17h41.39.881,stress,2023.1.0,60.09236196099581,
0,1,3,5,4,2,4,0,3,5,3,6,1,0,0,1,0,322,322,322,left,1,0.829377400001249,None,,,,pil_004,002,0.5,1.0,2023-03-24_17h41.39.881,stress,2023.1.0,60.09236196099581,
2,4,5,1,0,3,4,0,5,3,6,0,0,1,1,1,0,323,323,323,up,1,0.8698364999982005,None,,,,pil_004,002,0.5,1.0,2023-03-24_17h41.39.881,stress,2023.1.0,60.09236196099581,
4,2,3,0,1,5,4,0,6,6,5,5,1,1,0,1,0,324,324,324,left,1,1.310784400000557,None,,,,pil_004,002,0.5,1.0,2023-03-24_17h41.39.881,stress,2023.1.0,60.09236196099581,
0,4,3,2,5,1,4,5,3,0,6,5,0,1,1,1,0,325,325,325,up,1,1.644117499999993,None,,,,pil_004,002,0.5,1.0,2023-03-24_17h41.39.881,stress,2023.1.0,60.09236196099581,
2,0,5,1,4,3,4,6,3,3,0,5,1,0,0,1,0,326,326,326,left,1,0.9568268000002718,None,,,,pil_004,002,0.5,1.0,2023-03-24_17h41.39.881,stress,2023.1.0,60.09236196099581,
3,0,5,1,2,4,4,6,6,0,3,0,0,0,0,1,0,327,327,327,left,1,1.6283569000006537,None,,,,pil_004,002,0.5,1.0,2023-03-24_17h41.39.881,stress,2023.1.0,60.09236196099581,
1,3,4,2,5,0,4,5,3,6,6,0,0,1,0,1,0,328,328,328,left,1,3.102115900001081,None,,,,pil_004,002,0.5,1.0,2023-03-24_17h41.39.881,stress,2023.1.0,60.09236196099581,
4,2,1,5,3,0,4,0,6,0,6,3,0,1,1,1,0,329,329,329,up,1,1.2225839999991877,None,,,,pil_004,002,0.5,1.0,2023-03-24_17h41.39.881,stress,2023.1.0,60.09236196099581,
5,4,0,1,2,3,4,5,5,0,0,6,0,0,1,1,0,330,330,330,up,1,1.1905735000000277,None,,,,pil_004,002,0.5,1.0,2023-03-24_17h41.39.881,stress,2023.1.0,60.09236196099581,
4,1,0,3,2,5,4,5,3,0,0,6,0,0,0,1,0,331,331,331,left,1,1.2111799999984214,None,,,,pil_004,002,0.5,1.0,2023-03-24_17h41.39.881,stress,2023.1.0,60.09236196099581,
3,2,1,5,0,4,4,0,5,0,6,6,1,0,0,1,0,332,332,332,left,1,1.3258606999988842,None,,,,pil_004,002,0.5,1.0,2023-03-24_17h41.39.881,stress,2023.1.0,60.09236196099581,
2,1,5,4,3,0,4,3,5,0,0,6,0,0,1,1,0,333,333,333,up,1,0.7338743999971484,None,,,,pil_004,002,0.5,1.0,2023-03-24_17h41.39.881,stress,2023.1.0,60.09236196099581,
2,0,4,5,1,3,4,0,3,5,5,6,0,0,0,1,0,334,334,334,left,1,0.669992999999522,None,,,,pil_004,002,0.5,1.0,2023-03-24_17h41.39.881,stress,2023.1.0,60.09236196099581,
5,1,2,0,3,4,4,5,0,3,0,3,1,0,1,1,0,335,335,335,up,1,1.0847206999969785,None,,,,pil_004,002,0.5,1.0,2023-03-24_17h41.39.881,stress,2023.1.0,60.09236196099581,
2,1,3,4,5,0,4,6,0,0,3,3,1,1,0,1,0,336,336,336,left,1,0.6206667999977071,None,,,,pil_004,002,0.5,1.0,2023-03-24_17h41.39.881,stress,2023.1.0,60.09236196099581,
1,0,2,5,4,3,4,6,3,5,5,6,1,0,1,1,0,337,337,337,up,1,0.8189362999983132,None,,,,pil_004,002,0.5,1.0,2023-03-24_17h41.39.881,stress,2023.1.0,60.09236196099581,
2,4,0,5,3,1,4,3,6,5,6,3,1,0,0,1,0,338,338,338,left,1,0.8925663000009081,None,,,,pil_004,002,0.5,1.0,2023-03-24_17h41.39.881,stress,2023.1.0,60.09236196099581,
3,1,4,5,0,2,4,0,6,0,3,3,1,0,1,1,0,339,339,339,up,1,0.9230855000023439,None,,,,pil_004,002,0.5,1.0,2023-03-24_17h41.39.881,stress,2023.1.0,60.09236196099581,
2,3,1,0,5,4,4,0,5,6,3,0,1,1,1,1,0,340,340,340,up,1,0.6012227000028361,None,,,,pil_004,002,0.5,1.0,2023-03-24_17h41.39.881,stress,2023.1.0,60.09236196099581,
4,2,5,3,0,1,4,5,3,5,6,0,1,1,1,1,0,341,341,341,up,1,1.0212083000005805,None,,,,pil_004,002,0.5,1.0,2023-03-24_17h41.39.881,stress,2023.1.0,60.09236196099581,
5,1,3,4,0,2,4,3,5,5,6,0,0,0,0,1,0,342,342,342,left,1,1.1957296999971732,None,,,,pil_004,002,0.5,1.0,2023-03-24_17h41.39.881,stress,2023.1.0,60.09236196099581,
1,4,0,5,3,2,4,5,0,0,6,5,1,0,1,1,0,343,343,343,up,1,1.33988749999844,None,,,,pil_004,002,0.5,1.0,2023-03-24_17h41.39.881,stress,2023.1.0,60.09236196099581,
1,2,4,0,3,5,4,0,3,6,0,5,0,1,1,1,0,344,344,344,up,1,0.5373552999990352,None,,,,pil_004,002,0.5,1.0,2023-03-24_17h41.39.881,stress,2023.1.0,60.09236196099581,
5,2,4,0,3,1,4,6,6,0,3,5,1,0,1,1,0,345,345,345,up,1,1.262423600001057,None,,,,pil_004,002,0.5,1.0,2023-03-24_17h41.39.881,stress,2023.1.0,60.09236196099581,
3,1,5,0,4,2,4,6,3,0,5,3,0,1,1,1,0,346,346,346,up,1,1.5167112000017369,None,,,,pil_004,002,0.5,1.0,2023-03-24_17h41.39.881,stress,2023.1.0,60.09236196099581,
4,0,5,3,1,2,4,5,3,3,0,0,0,0,0,1,0,347,347,347,left,1,1.048323299997719,None,,,,pil_004,002,0.5,1.0,2023-03-24_17h41.39.881,stress,2023.1.0,60.09236196099581,
5,1,2,4,3,0,4,3,6,5,5,3,0,0,1,1,0,348,348,348,up,1,1.076699400000507,None,,,,pil_004,002,0.5,1.0,2023-03-24_17h41.39.881,stress,2023.1.0,60.09236196099581,
1,5,2,3,0,4,4,6,3,5,0,6,1,1,0,1,0,349,349,349,left,1,1.1335011999981361,None,,,,pil_004,002,0.5,1.0,2023-03-24_17h41.39.881,stress,2023.1.0,60.09236196099581,
5,2,1,4,0,3,4,3,3,5,5,0,0,1,1,1,0,350,350,350,up,1,1.0454492999997456,None,,,,pil_004,002,0.5,1.0,2023-03-24_17h41.39.881,stress,2023.1.0,60.09236196099581,
2,5,4,1,3,0,4,5,0,5,3,6,1,0,1,1,0,351,351,351,up,1,0.6764522000012221,None,,,,pil_004,002,0.5,1.0,2023-03-24_17h41.39.881,stress,2023.1.0,60.09236196099581,
4,1,0,3,5,2,4,5,6,3,0,0,1,0,0,1,0,352,352,352,left,1,1.6672070999993593,None,,,,pil_004,002,0.5,1.0,2023-03-24_17h41.39.881,stress,2023.1.0,60.09236196099581,
3,1,0,2,5,4,4,6,0,3,3,5,1,1,0,1,0,353,353,353,left,1,0.951676700002281,None,,,,pil_004,002,0.5,1.0,2023-03-24_17h41.39.881,stress,2023.1.0,60.09236196099581,
2,1,5,4,0,3,4,6,3,5,0,5,0,0,0,1,0,354,354,354,left,1,0.6236554000024626,None,,,,pil_004,002,0.5,1.0,2023-03-24_17h41.39.881,stress,2023.1.0,60.09236196099581,
0,1,5,2,4,3,4,6,3,3,6,0,0,1,0,1,0,355,355,355,left,1,1.4460585999986506,None,,,,pil_004,002,0.5,1.0,2023-03-24_17h41.39.881,stress,2023.1.0,60.09236196099581,
0,2,5,4,1,3,4,3,3,6,0,5,0,1,0,1,0,356,356,356,left,1,1.0775697999997647,None,,,,pil_004,002,0.5,1.0,2023-03-24_17h41.39.881,stress,2023.1.0,60.09236196099581,
5,1,2,4,0,3,4,0,6,3,0,3,1,1,0,1,0,357,357,357,left,1,1.1940214000023843,None,,,,pil_004,002,0.5,1.0,2023-03-24_17h41.39.881,stress,2023.1.0,60.09236196099581,
5,0,2,1,4,3,4,3,6,0,5,0,1,1,1,1,0,358,358,358,up,1,1.5188060000000405,None,,,,pil_004,002,0.5,1.0,2023-03-24_17h41.39.881,stress,2023.1.0,60.09236196099581,
3,4,2,0,5,1,4,0,6,6,5,3,0,1,1,1,0,359,359,359,up,1,0.9669820000017353,space,155.55740040000092,,,pil_004,002,0.5,1.0,2023-03-24_17h41.39.881,stress,2023.1.0,60.09236196099581,
3,2,5,1,4,0,4,3,0,3,6,0,0,1,0,1,0,360,360,360,left,1,1.1346644000004744,None,,,,pil_004,002,0.5,1.0,2023-03-24_17h41.39.881,stress,2023.1.0,60.09236196099581,
5,3,4,2,1,0,4,6,0,3,5,3,1,0,1,1,0,361,361,361,up,1,1.6746770999998262,None,,,,pil_004,002,0.5,1.0,2023-03-24_17h41.39.881,stress,2023.1.0,60.09236196099581,
1,0,4,5,2,3,4,0,6,3,5,0,1,1,1,1,0,362,362,362,up,1,1.1308887999985018,None,,,,pil_004,002,0.5,1.0,2023-03-24_17h41.39.881,stress,2023.1.0,60.09236196099581,
5,4,2,3,0,1,4,5,0,6,6,0,1,1,0,1,0,363,363,363,left,1,0.9456524000015634,None,,,,pil_004,002,0.5,1.0,2023-03-24_17h41.39.881,stress,2023.1.0,60.09236196099581,
4,5,2,3,0,1,4,3,0,3,0,6,0,0,1,1,0,364,364,364,up,1,1.075305099999241,None,,,,pil_004,002,0.5,1.0,2023-03-24_17h41.39.881,stress,2023.1.0,60.09236196099581,
4,5,2,1,3,0,4,3,3,0,5,0,1,0,0,1,0,365,365,365,left,1,0.8967743999965023,None,,,,pil_004,002,0.5,1.0,2023-03-24_17h41.39.881,stress,2023.1.0,60.09236196099581,
3,2,1,0,5,4,4,6,6,0,3,0,1,0,1,1,0,366,366,366,up,1,0.8191899000012199,None,,,,pil_004,002,0.5,1.0,2023-03-24_17h41.39.881,stress,2023.1.0,60.09236196099581,
3,1,4,2,0,5,4,6,0,3,5,5,0,1,1,1,0,367,367,367,up,1,0.5384526000016194,None,,,,pil_004,002,0.5,1.0,2023-03-24_17h41.39.881,stress,2023.1.0,60.09236196099581,
2,4,0,1,3,5,4,0,3,6,0,6,1,1,1,1,0,368,368,368,up,1,0.8279986999987159,None,,,,pil_004,002,0.5,1.0,2023-03-24_17h41.39.881,stress,2023.1.0,60.09236196099581,
4,5,2,3,0,1,4,6,5,0,3,5,1,0,0,1,0,369,369,369,left,1,0.9891895000000659,None,,,,pil_004,002,0.5,1.0,2023-03-24_17h41.39.881,stress,2023.1.0,60.09236196099581,
0,4,5,1,2,3,4,5,6,5,3,0,1,1,0,1,0,370,370,370,left,1,2.0233774000007543,None,,,,pil_004,002,0.5,1.0,2023-03-24_17h41.39.881,stress,2023.1.0,60.09236196099581,
5,1,3,4,2,0,4,0,6,5,6,5,1,0,1,1,0,371,371,371,up,1,1.1709454999981972,None,,,,pil_004,002,0.5,1.0,2023-03-24_17h41.39.881,stress,2023.1.0,60.09236196099581,
4,5,0,1,2,3,4,3,6,0,3,6,0,0,1,1,0,372,372,372,up,1,1.1711906000018644,None,,,,pil_004,002,0.5,1.0,2023-03-24_17h41.39.881,stress,2023.1.0,60.09236196099581,
2,3,5,0,1,4,4,6,6,3,3,0,1,1,0,1,0,373,373,373,left,1,0.8374844999998459,None,,,,pil_004,002,0.5,1.0,2023-03-24_17h41.39.881,stress,2023.1.0,60.09236196099581,
1,2,0,4,5,3,4,5,3,3,0,6,1,1,1,1,0,374,374,374,up,1,0.8159357000004093,None,,,,pil_004,002,0.5,1.0,2023-03-24_17h41.39.881,stress,2023.1.0,60.09236196099581,
3,1,5,4,2,0,4,0,5,5,3,0,1,1,0,1,0,375,375,375,left,1,1.0817468999994162,None,,,,pil_004,002,0.5,1.0,2023-03-24_17h41.39.881,stress,2023.1.0,60.09236196099581,
4,5,1,3,2,0,4,3,5,5,6,0,0,1,1,1,0,376,376,376,up,1,1.46540670000104,None,,,,pil_004,002,0.5,1.0,2023-03-24_17h41.39.881,stress,2023.1.0,60.09236196099581,
3,0,2,4,1,5,4,3,6,0,6,5,1,1,1,1,0,377,377,377,up,1,0.7224324000017077,None,,,,pil_004,002,0.5,1.0,2023-03-24_17h41.39.881,stress,2023.1.0,60.09236196099581,
2,4,5,1,3,0,4,0,0,6,5,3,1,0,1,1,0,378,378,378,up,1,0.5719605999984196,None,,,,pil_004,002,0.5,1.0,2023-03-24_17h41.39.881,stress,2023.1.0,60.09236196099581,
5,4,1,0,3,2,4,0,3,6,5,0,1,0,0,1,0,379,379,379,left,1,1.5690708000001905,None,,,,pil_004,002,0.5,1.0,2023-03-24_17h41.39.881,stress,2023.1.0,60.09236196099581,
3,4,0,5,2,1,4,0,3,5,6,5,0,1,0,1,0,380,380,380,left,1,0.9190223999976297,None,,,,pil_004,002,0.5,1.0,2023-03-24_17h41.39.881,stress,2023.1.0,60.09236196099581,
5,2,1,0,4,3,4,0,5,6,3,6,0,1,0,1,0,381,381,381,left,1,1.4269493000028888,None,,,,pil_004,002,0.5,1.0,2023-03-24_17h41.39.881,stress,2023.1.0,60.09236196099581,
0,2,1,4,5,3,4,3,0,6,0,6,1,1,1,1,0,382,382,382,up,1,1.362350499999593,None,,,,pil_004,002,0.5,1.0,2023-03-24_17h41.39.881,stress,2023.1.0,60.09236196099581,
2,4,0,5,1,3,4,6,5,3,0,5,1,0,0,1,0,383,383,383,left,1,2.080112299998291,None,,,,pil_004,002,0.5,1.0,2023-03-24_17h41.39.881,stress,2023.1.0,60.09236196099581,
1,3,4,0,5,2,4,5,0,6,3,6,0,0,0,1,0,384,384,384,left,1,0.8139345999989018,None,,,,pil_004,002,0.5,1.0,2023-03-24_17h41.39.881,stress,2023.1.0,60.09236196099581,
5,0,1,4,3,2,4,5,5,0,6,6,0,0,0,1,0,385,385,385,left,1,1.5725086999991618,None,,,,pil_004,002,0.5,1.0,2023-03-24_17h41.39.881,stress,2023.1.0,60.09236196099581,
3,5,4,2,0,1,4,6,0,6,5,3,1,1,1,1,0,386,386,386,up,1,1.644590199997765,None,,,,pil_004,002,0.5,1.0,2023-03-24_17h41.39.881,stress,2023.1.0,60.09236196099581,
3,1,5,0,4,2,4,6,3,3,0,0,0,0,0,1,0,387,387,387,left,1,0.8183122000009462,None,,,,pil_004,002,0.5,1.0,2023-03-24_17h41.39.881,stress,2023.1.0,60.09236196099581,
2,4,1,0,5,3,4,0,3,6,5,6,0,1,0,1,0,388,388,388,left,1,0.8549992999978713,None,,,,pil_004,002,0.5,1.0,2023-03-24_17h41.39.881,stress,2023.1.0,60.09236196099581,
3,2,5,1,0,4,4,5,6,0,0,5,0,1,0,1,0,389,389,389,left,1,0.7738100000024133,None,,,,pil_004,002,0.5,1.0,2023-03-24_17h41.39.881,stress,2023.1.0,60.09236196099581,
5,2,0,1,4,3,4,5,0,5,3,0,0,1,1,1,0,390,390,390,up,1,1.5372334999992745,None,,,,pil_004,002,0.5,1.0,2023-03-24_17h41.39.881,stress,2023.1.0,60.09236196099581,
5,1,4,0,2,3,4,0,5,5,0,6,1,0,0,1,0,391,391,391,left,1,0.9328408000001218,None,,,,pil_004,002,0.5,1.0,2023-03-24_17h41.39.881,stress,2023.1.0,60.09236196099581,
5,3,1,0,2,4,4,6,0,5,3,6,1,1,1,1,0,392,392,392,up,1,0.9996605999986059,None,,,,pil_004,002,0.5,1.0,2023-03-24_17h41.39.881,stress,2023.1.0,60.09236196099581,
4,1,2,3,5,0,4,0,0,6,5,3,1,1,1,1,0,393,393,393,up,1,1.3643636999986484,None,,,,pil_004,002,0.5,1.0,2023-03-24_17h41.39.881,stress,2023.1.0,60.09236196099581,
0,3,1,2,5,4,4,3,3,5,6,5,1,1,0,1,0,394,394,394,left,1,2.620512500001496,None,,,,pil_004,002,0.5,1.0,2023-03-24_17h41.39.881,stress,2023.1.0,60.09236196099581,
0,5,4,1,3,2,4,3,0,0,3,6,0,0,0,1,0,395,395,395,left,1,1.09694060000038,None,,,,pil_004,002,0.5,1.0,2023-03-24_17h41.39.881,stress,2023.1.0,60.09236196099581,
2,0,1,5,3,4,4,3,0,6,5,6,1,0,1,1,0,396,396,396,up,1,2.1008708999979717,None,,,,pil_004,002,0.5,1.0,2023-03-24_17h41.39.881,stress,2023.1.0,60.09236196099581,
4,3,2,5,0,1,4,0,6,5,0,3,0,0,1,1,0,397,397,397,up,1,1.4014308000005258,None,,,,pil_004,002,0.5,1.0,2023-03-24_17h41.39.881,stress,2023.1.0,60.09236196099581,
2,5,0,1,4,3,4,3,5,6,0,5,0,0,0,1,0,398,398,398,left,1,0.6072278000028746,None,,,,pil_004,002,0.5,1.0,2023-03-24_17h41.39.881,stress,2023.1.0,60.09236196099581,
3,0,1,4,5,2,4,6,0,6,5,3,0,0,1,1,0,399,399,399,up,1,0.9073836999996274,space,2.3445035999975516,,,pil_004,002,0.5,1.0,2023-03-24_17h41.39.881,stress,2023.1.0,60.09236196099581,
,,,,,,,,,,,,,,,,,,,,,,,,,space,1.3532032999974035,pil_004,002,0.5,1.0,2023-03-24_17h41.39.881,stress,2023.1.0,60.09236196099581,
