pos1,pos2,pos3,pos4,pos5,pos6,shape1,shape2,shape3,shape4,shape5,shape6,singleton,target_color,target_orientation,cue_validity,trials.thisRepN,trials.thisTrialN,trials.thisN,trials.thisIndex,search_response.keys,search_response.corr,search_response.rt,key_block.keys,key_block.rt,end_key.keys,end_key.rt,participant,session,distractor_prevalence,validity,date,expName,psychopyVersion,frameRate,
2,1,5,4,3,0,4,0,5,3,0,5,1,1,0,1,0,0,0,0,left,1,1.096122999999352,None,,,,pil_003,002,0.9,1.0,2023-03-23_13h05.35.733,stress,2023.1.0,59.995704307710646,
5,0,1,2,4,3,4,5,6,0,3,3,1,1,0,1,0,1,1,1,left,1,1.2889636999998402,None,,,,pil_003,002,0.9,1.0,2023-03-23_13h05.35.733,stress,2023.1.0,59.995704307710646,
0,1,2,4,3,5,4,6,6,3,5,0,1,1,0,1,0,2,2,2,left,1,0.8518494999998438,None,,,,pil_003,002,0.9,1.0,2023-03-23_13h05.35.733,stress,2023.1.0,59.995704307710646,
4,3,5,1,2,0,4,6,3,5,6,5,0,1,0,1,0,3,3,3,left,1,1.8152772999992521,None,,,,pil_003,002,0.9,1.0,2023-03-23_13h05.35.733,stress,2023.1.0,59.995704307710646,
2,1,3,5,4,0,4,5,6,0,6,0,1,0,0,1,0,4,4,4,left,1,0.8080644000001485,None,,,,pil_003,002,0.9,1.0,2023-03-23_13h05.35.733,stress,2023.1.0,59.995704307710646,
0,1,3,4,2,5,4,3,0,6,0,5,1,0,0,1,0,5,5,5,left,1,1.464890999999625,None,,,,pil_003,002,0.9,1.0,2023-03-23_13h05.35.733,stress,2023.1.0,59.995704307710646,
2,4,0,3,1,5,4,6,5,3,0,0,1,0,0,1,0,6,6,6,left,1,0.6090494999998555,None,,,,pil_003,002,0.9,1.0,2023-03-23_13h05.35.733,stress,2023.1.0,59.995704307710646,
5,0,1,2,4,3,4,6,3,5,6,0,0,0,0,1,0,7,7,7,left,1,1.3369837000000189,None,,,,pil_003,002,0.9,1.0,2023-03-23_13h05.35.733,stress,2023.1.0,59.995704307710646,
5,2,0,1,4,3,4,6,5,0,3,3,1,0,1,1,0,8,8,8,up,1,1.3288107000007585,None,,,,pil_003,002,0.9,1.0,2023-03-23_13h05.35.733,stress,2023.1.0,59.995704307710646,
2,5,4,0,1,3,4,6,5,0,3,6,1,1,1,1,0,9,9,9,up,1,0.7087120000005598,None,,,,pil_003,002,0.9,1.0,2023-03-23_13h05.35.733,stress,2023.1.0,59.995704307710646,
3,5,4,0,2,1,4,0,5,0,5,6,1,1,1,1,0,10,10,10,up,1,0.9556642999996257,None,,,,pil_003,002,0.9,1.0,2023-03-23_13h05.35.733,stress,2023.1.0,59.995704307710646,
2,3,5,4,1,0,4,5,6,3,3,0,1,0,1,1,0,11,11,11,up,1,1.2321991000007984,None,,,,pil_003,002,0.9,1.0,2023-03-23_13h05.35.733,stress,2023.1.0,59.995704307710646,
5,2,1,4,0,3,4,6,0,5,3,6,1,1,0,1,0,12,12,12,left,1,1.388804600000185,None,,,,pil_003,002,0.9,1.0,2023-03-23_13h05.35.733,stress,2023.1.0,59.995704307710646,
0,4,3,2,1,5,4,0,6,0,3,6,1,1,0,1,0,13,13,13,left,1,1.1425251000000571,None,,,,pil_003,002,0.9,1.0,2023-03-23_13h05.35.733,stress,2023.1.0,59.995704307710646,
3,1,2,5,0,4,4,6,5,3,5,0,0,1,0,1,0,14,14,14,left,1,0.8285385999997743,None,,,,pil_003,002,0.9,1.0,2023-03-23_13h05.35.733,stress,2023.1.0,59.995704307710646,
5,3,2,0,1,4,4,0,6,3,5,6,1,1,0,1,0,15,15,15,left,1,1.439305100000638,None,,,,pil_003,002,0.9,1.0,2023-03-23_13h05.35.733,stress,2023.1.0,59.995704307710646,
4,5,1,3,2,0,4,5,6,3,0,6,1,1,0,1,0,16,16,16,left,1,1.7521827000000485,None,,,,pil_003,002,0.9,1.0,2023-03-23_13h05.35.733,stress,2023.1.0,59.995704307710646,
4,3,1,5,2,0,4,5,0,3,0,6,1,0,1,1,0,17,17,17,up,1,1.3424415999998018,None,,,,pil_003,002,0.9,1.0,2023-03-23_13h05.35.733,stress,2023.1.0,59.995704307710646,
5,2,4,1,0,3,4,3,6,5,5,0,1,1,1,1,0,18,18,18,up,1,2.6715692999996463,None,,,,pil_003,002,0.9,1.0,2023-03-23_13h05.35.733,stress,2023.1.0,59.995704307710646,
4,2,0,3,1,5,4,0,5,3,3,6,1,0,1,1,0,19,19,19,up,1,1.394040799999857,None,,,,pil_003,002,0.9,1.0,2023-03-23_13h05.35.733,stress,2023.1.0,59.995704307710646,
2,0,3,4,1,5,4,0,3,0,5,6,1,0,0,1,0,20,20,20,left,1,0.903377300000102,None,,,,pil_003,002,0.9,1.0,2023-03-23_13h05.35.733,stress,2023.1.0,59.995704307710646,
5,3,4,0,2,1,4,6,5,6,0,3,1,0,0,1,0,21,21,21,left,1,1.3637472000000344,None,,,,pil_003,002,0.9,1.0,2023-03-23_13h05.35.733,stress,2023.1.0,59.995704307710646,
1,0,5,2,3,4,4,5,0,5,6,6,1,1,0,1,0,22,22,22,left,1,0.8027716999995391,None,,,,pil_003,002,0.9,1.0,2023-03-23_13h05.35.733,stress,2023.1.0,59.995704307710646,
1,4,2,3,5,0,4,6,6,5,5,0,1,1,0,1,0,23,23,23,left,1,0.5570660000003045,None,,,,pil_003,002,0.9,1.0,2023-03-23_13h05.35.733,stress,2023.1.0,59.995704307710646,
4,5,2,3,0,1,4,3,0,6,5,0,1,0,1,1,0,24,24,24,up,1,1.1617713000005097,None,,,,pil_003,002,0.9,1.0,2023-03-23_13h05.35.733,stress,2023.1.0,59.995704307710646,
0,2,3,1,5,4,4,5,0,3,5,0,0,1,0,1,0,25,25,25,left,1,1.0011413000001994,None,,,,pil_003,002,0.9,1.0,2023-03-23_13h05.35.733,stress,2023.1.0,59.995704307710646,
5,2,0,1,4,3,4,3,0,3,6,5,1,0,1,1,0,26,26,26,up,1,2.2492090999994616,None,,,,pil_003,002,0.9,1.0,2023-03-23_13h05.35.733,stress,2023.1.0,59.995704307710646,
4,3,2,1,5,0,4,6,3,0,3,5,1,0,1,1,0,27,27,27,up,1,0.98445509999965,None,,,,pil_003,002,0.9,1.0,2023-03-23_13h05.35.733,stress,2023.1.0,59.995704307710646,
5,2,1,3,0,4,4,6,3,0,6,5,0,1,0,1,0,28,28,28,left,1,1.1406888000001345,None,,,,pil_003,002,0.9,1.0,2023-03-23_13h05.35.733,stress,2023.1.0,59.995704307710646,
1,0,5,3,2,4,4,6,5,6,0,5,1,1,0,1,0,29,29,29,left,1,0.9368748000006235,None,,,,pil_003,002,0.9,1.0,2023-03-23_13h05.35.733,stress,2023.1.0,59.995704307710646,
0,4,5,3,2,1,4,5,3,5,0,3,1,0,1,1,0,30,30,30,up,1,0.8660522000000128,None,,,,pil_003,002,0.9,1.0,2023-03-23_13h05.35.733,stress,2023.1.0,59.995704307710646,
5,1,3,2,4,0,4,3,6,6,5,0,0,1,1,1,0,31,31,31,up,1,1.1267181999992317,None,,,,pil_003,002,0.9,1.0,2023-03-23_13h05.35.733,stress,2023.1.0,59.995704307710646,
0,5,2,4,3,1,4,6,3,5,5,0,1,1,1,1,0,32,32,32,up,1,0.9954194000001735,None,,,,pil_003,002,0.9,1.0,2023-03-23_13h05.35.733,stress,2023.1.0,59.995704307710646,
1,5,3,0,2,4,4,6,3,5,0,0,1,1,1,1,0,33,33,33,up,1,2.096859199999926,None,,,,pil_003,002,0.9,1.0,2023-03-23_13h05.35.733,stress,2023.1.0,59.995704307710646,
5,1,3,4,2,0,4,6,5,0,0,6,1,1,1,1,0,34,34,34,up,1,1.910975700000563,None,,,,pil_003,002,0.9,1.0,2023-03-23_13h05.35.733,stress,2023.1.0,59.995704307710646,
2,4,5,3,0,1,4,5,0,6,3,3,1,1,0,1,0,35,35,35,left,1,0.8108117000001585,None,,,,pil_003,002,0.9,1.0,2023-03-23_13h05.35.733,stress,2023.1.0,59.995704307710646,
0,4,5,1,2,3,4,0,0,5,5,6,1,0,0,1,0,36,36,36,left,1,1.9527852000001076,None,,,,pil_003,002,0.9,1.0,2023-03-23_13h05.35.733,stress,2023.1.0,59.995704307710646,
3,2,1,5,0,4,4,3,6,0,0,3,1,0,1,1,0,37,37,37,up,1,2.204606999999669,None,,,,pil_003,002,0.9,1.0,2023-03-23_13h05.35.733,stress,2023.1.0,59.995704307710646,
1,3,2,4,5,0,4,3,0,0,5,6,1,1,1,1,0,38,38,38,up,1,1.82395760000054,None,,,,pil_003,002,0.9,1.0,2023-03-23_13h05.35.733,stress,2023.1.0,59.995704307710646,
3,4,2,5,0,1,4,6,3,0,5,3,1,1,0,1,0,39,39,39,left,1,0.9156317999995736,space,2.987884099999974,,,pil_003,002,0.9,1.0,2023-03-23_13h05.35.733,stress,2023.1.0,59.995704307710646,
4,1,3,5,0,2,4,3,6,5,0,5,1,1,0,1,0,40,40,40,left,1,1.0476978000006056,None,,,,pil_003,002,0.9,1.0,2023-03-23_13h05.35.733,stress,2023.1.0,59.995704307710646,
3,0,4,1,5,2,4,5,6,0,6,3,1,0,1,1,0,41,41,41,up,1,1.0037026999998488,None,,,,pil_003,002,0.9,1.0,2023-03-23_13h05.35.733,stress,2023.1.0,59.995704307710646,
3,1,4,5,0,2,4,0,5,5,0,3,1,1,0,1,0,42,42,42,left,1,0.8337918999995964,None,,,,pil_003,002,0.9,1.0,2023-03-23_13h05.35.733,stress,2023.1.0,59.995704307710646,
3,0,1,4,5,2,4,0,0,6,3,6,1,1,0,1,0,43,43,43,left,1,0.7212835999998788,None,,,,pil_003,002,0.9,1.0,2023-03-23_13h05.35.733,stress,2023.1.0,59.995704307710646,
5,2,0,4,3,1,4,3,5,0,5,0,1,0,1,1,0,44,44,44,up,1,1.4175898000003144,None,,,,pil_003,002,0.9,1.0,2023-03-23_13h05.35.733,stress,2023.1.0,59.995704307710646,
1,2,0,5,4,3,4,3,6,6,0,5,0,1,0,1,0,45,45,45,left,1,0.7158477000002677,None,,,,pil_003,002,0.9,1.0,2023-03-23_13h05.35.733,stress,2023.1.0,59.995704307710646,
1,4,0,3,5,2,4,3,0,6,5,6,1,0,1,1,0,46,46,46,up,1,0.6948439999996481,None,,,,pil_003,002,0.9,1.0,2023-03-23_13h05.35.733,stress,2023.1.0,59.995704307710646,
2,0,3,5,4,1,4,5,3,0,5,6,1,1,0,1,0,47,47,47,left,1,0.7423223999994661,None,,,,pil_003,002,0.9,1.0,2023-03-23_13h05.35.733,stress,2023.1.0,59.995704307710646,
1,4,2,5,0,3,4,5,6,0,3,5,1,0,1,1,0,48,48,48,up,1,1.2625208999997994,None,,,,pil_003,002,0.9,1.0,2023-03-23_13h05.35.733,stress,2023.1.0,59.995704307710646,
5,3,1,4,2,0,4,0,3,0,5,6,1,1,1,1,0,49,49,49,up,1,1.378147700000227,None,,,,pil_003,002,0.9,1.0,2023-03-23_13h05.35.733,stress,2023.1.0,59.995704307710646,
4,1,2,0,3,5,4,3,6,5,3,5,1,1,1,1,0,50,50,50,up,1,1.283569900000657,None,,,,pil_003,002,0.9,1.0,2023-03-23_13h05.35.733,stress,2023.1.0,59.995704307710646,
4,2,1,5,3,0,4,6,5,0,0,6,1,0,0,1,0,51,51,51,left,1,1.8288857999996253,None,,,,pil_003,002,0.9,1.0,2023-03-23_13h05.35.733,stress,2023.1.0,59.995704307710646,
0,4,3,1,5,2,4,0,0,3,6,6,1,0,1,1,0,52,52,52,up,1,1.912290899999789,None,,,,pil_003,002,0.9,1.0,2023-03-23_13h05.35.733,stress,2023.1.0,59.995704307710646,
3,2,0,1,4,5,4,3,0,0,6,5,1,1,1,1,0,53,53,53,up,1,4.803061399999933,None,,,,pil_003,002,0.9,1.0,2023-03-23_13h05.35.733,stress,2023.1.0,59.995704307710646,
1,0,4,5,2,3,4,3,0,0,6,3,1,1,0,1,0,54,54,54,left,1,2.9566792999994504,None,,,,pil_003,002,0.9,1.0,2023-03-23_13h05.35.733,stress,2023.1.0,59.995704307710646,
3,1,2,0,5,4,4,0,6,0,3,5,1,1,1,1,0,55,55,55,up,1,1.5446858000004795,None,,,,pil_003,002,0.9,1.0,2023-03-23_13h05.35.733,stress,2023.1.0,59.995704307710646,
0,3,5,2,1,4,4,0,5,6,6,3,1,1,1,1,0,56,56,56,up,1,2.1975727999997616,None,,,,pil_003,002,0.9,1.0,2023-03-23_13h05.35.733,stress,2023.1.0,59.995704307710646,
2,1,5,4,3,0,4,5,5,0,0,3,1,0,0,1,0,57,57,57,left,1,0.886623100000179,None,,,,pil_003,002,0.9,1.0,2023-03-23_13h05.35.733,stress,2023.1.0,59.995704307710646,
5,0,3,1,4,2,4,0,6,5,5,0,1,1,1,1,0,58,58,58,up,1,1.4133775000000242,None,,,,pil_003,002,0.9,1.0,2023-03-23_13h05.35.733,stress,2023.1.0,59.995704307710646,
2,3,1,0,5,4,4,3,5,3,6,5,1,0,0,1,0,59,59,59,left,1,0.7217971000000034,None,,,,pil_003,002,0.9,1.0,2023-03-23_13h05.35.733,stress,2023.1.0,59.995704307710646,
2,3,4,1,5,0,4,5,6,5,3,0,1,0,0,1,0,60,60,60,left,1,0.46410519999972166,None,,,,pil_003,002,0.9,1.0,2023-03-23_13h05.35.733,stress,2023.1.0,59.995704307710646,
2,0,4,5,3,1,4,0,3,5,0,6,0,0,1,1,0,61,61,61,up,1,0.5484153999996124,None,,,,pil_003,002,0.9,1.0,2023-03-23_13h05.35.733,stress,2023.1.0,59.995704307710646,
4,1,2,0,5,3,4,6,0,5,6,3,1,0,0,1,0,62,62,62,left,1,1.0067392999999356,None,,,,pil_003,002,0.9,1.0,2023-03-23_13h05.35.733,stress,2023.1.0,59.995704307710646,
2,1,5,0,3,4,4,3,5,0,5,0,1,1,1,1,0,63,63,63,up,1,1.3247993000004499,None,,,,pil_003,002,0.9,1.0,2023-03-23_13h05.35.733,stress,2023.1.0,59.995704307710646,
3,4,5,2,1,0,4,0,3,6,0,5,1,1,0,1,0,64,64,64,left,1,0.8080571000000418,None,,,,pil_003,002,0.9,1.0,2023-03-23_13h05.35.733,stress,2023.1.0,59.995704307710646,
0,1,2,4,5,3,4,6,5,5,0,6,1,1,1,1,0,65,65,65,up,1,1.5760086000000229,None,,,,pil_003,002,0.9,1.0,2023-03-23_13h05.35.733,stress,2023.1.0,59.995704307710646,
3,4,1,0,2,5,4,5,0,3,6,3,1,1,1,1,0,66,66,66,left,0,1.5420353999998042,None,,,,pil_003,002,0.9,1.0,2023-03-23_13h05.35.733,stress,2023.1.0,59.995704307710646,
2,3,0,1,4,5,4,0,3,6,6,3,1,1,0,1,0,67,67,67,left,1,0.8425341000001936,None,,,,pil_003,002,0.9,1.0,2023-03-23_13h05.35.733,stress,2023.1.0,59.995704307710646,
4,2,3,5,1,0,4,0,3,6,6,5,1,0,1,1,0,68,68,68,up,1,1.2400206000002072,None,,,,pil_003,002,0.9,1.0,2023-03-23_13h05.35.733,stress,2023.1.0,59.995704307710646,
4,1,2,3,0,5,4,3,5,6,0,5,1,0,1,1,0,69,69,69,left,0,1.2202347000002192,None,,,,pil_003,002,0.9,1.0,2023-03-23_13h05.35.733,stress,2023.1.0,59.995704307710646,
1,2,3,4,5,0,4,6,0,5,3,0,1,0,0,1,0,70,70,70,left,1,0.8323628999996799,None,,,,pil_003,002,0.9,1.0,2023-03-23_13h05.35.733,stress,2023.1.0,59.995704307710646,
2,5,1,0,3,4,4,0,3,5,6,5,1,1,1,1,0,71,71,71,up,1,0.6325581000000966,None,,,,pil_003,002,0.9,1.0,2023-03-23_13h05.35.733,stress,2023.1.0,59.995704307710646,
1,2,3,4,5,0,4,3,5,3,5,6,1,1,0,1,0,72,72,72,left,1,0.8683000000000902,None,,,,pil_003,002,0.9,1.0,2023-03-23_13h05.35.733,stress,2023.1.0,59.995704307710646,
3,4,5,0,2,1,4,0,3,6,5,5,1,0,1,1,0,73,73,73,up,1,1.651830300000256,None,,,,pil_003,002,0.9,1.0,2023-03-23_13h05.35.733,stress,2023.1.0,59.995704307710646,
0,3,1,5,2,4,4,3,0,6,3,6,1,1,0,1,0,74,74,74,left,1,1.3077150999997684,None,,,,pil_003,002,0.9,1.0,2023-03-23_13h05.35.733,stress,2023.1.0,59.995704307710646,
0,3,4,5,2,1,4,5,3,0,6,6,1,1,0,1,0,75,75,75,left,1,1.2631120999994891,None,,,,pil_003,002,0.9,1.0,2023-03-23_13h05.35.733,stress,2023.1.0,59.995704307710646,
2,0,3,5,1,4,4,0,6,0,3,5,1,0,1,1,0,76,76,76,up,1,0.9068951999997807,None,,,,pil_003,002,0.9,1.0,2023-03-23_13h05.35.733,stress,2023.1.0,59.995704307710646,
2,4,5,1,3,0,4,3,0,5,6,0,1,1,0,1,0,77,77,77,left,1,0.7850622000005387,None,,,,pil_003,002,0.9,1.0,2023-03-23_13h05.35.733,stress,2023.1.0,59.995704307710646,
5,3,0,4,1,2,4,6,0,3,3,5,0,0,1,1,0,78,78,78,up,1,1.3744871999997486,None,,,,pil_003,002,0.9,1.0,2023-03-23_13h05.35.733,stress,2023.1.0,59.995704307710646,
0,3,2,1,5,4,4,6,3,3,5,6,1,0,0,1,0,79,79,79,left,1,1.4016733999997086,space,1.772430300000451,,,pil_003,002,0.9,1.0,2023-03-23_13h05.35.733,stress,2023.1.0,59.995704307710646,
4,0,5,3,2,1,4,6,3,6,5,5,1,0,0,1,0,80,80,80,left,1,1.1953489000006812,None,,,,pil_003,002,0.9,1.0,2023-03-23_13h05.35.733,stress,2023.1.0,59.995704307710646,
1,4,3,0,5,2,4,6,3,5,0,3,0,0,0,1,0,81,81,81,left,1,0.7489193000001251,None,,,,pil_003,002,0.9,1.0,2023-03-23_13h05.35.733,stress,2023.1.0,59.995704307710646,
1,5,2,3,0,4,4,0,0,3,6,5,0,0,0,1,0,82,82,82,left,1,1.0989834000001792,None,,,,pil_003,002,0.9,1.0,2023-03-23_13h05.35.733,stress,2023.1.0,59.995704307710646,
4,1,2,0,5,3,4,6,6,3,5,0,1,0,0,1,0,83,83,83,left,1,1.2708041999994748,None,,,,pil_003,002,0.9,1.0,2023-03-23_13h05.35.733,stress,2023.1.0,59.995704307710646,
3,5,2,1,0,4,4,6,5,0,3,0,1,0,1,1,0,84,84,84,up,1,1.9553722999999081,None,,,,pil_003,002,0.9,1.0,2023-03-23_13h05.35.733,stress,2023.1.0,59.995704307710646,
2,5,1,3,0,4,4,5,0,5,0,3,1,0,0,1,0,85,85,85,left,1,0.6959168999992471,None,,,,pil_003,002,0.9,1.0,2023-03-23_13h05.35.733,stress,2023.1.0,59.995704307710646,
3,2,0,5,4,1,4,3,6,0,0,5,1,0,1,1,0,86,86,86,up,1,2.5821552000006704,None,,,,pil_003,002,0.9,1.0,2023-03-23_13h05.35.733,stress,2023.1.0,59.995704307710646,
0,2,4,5,1,3,4,6,3,6,5,0,1,1,1,1,0,87,87,87,up,1,1.555412200000319,None,,,,pil_003,002,0.9,1.0,2023-03-23_13h05.35.733,stress,2023.1.0,59.995704307710646,
2,4,5,3,1,0,4,0,6,3,3,5,1,1,1,1,0,88,88,88,up,1,0.8914864000007583,None,,,,pil_003,002,0.9,1.0,2023-03-23_13h05.35.733,stress,2023.1.0,59.995704307710646,
1,5,3,4,0,2,4,6,3,5,0,5,1,0,0,1,0,89,89,89,left,1,1.0760292999993908,None,,,,pil_003,002,0.9,1.0,2023-03-23_13h05.35.733,stress,2023.1.0,59.995704307710646,
2,0,1,4,3,5,4,5,0,3,0,5,1,1,1,1,0,90,90,90,up,1,0.678834100000131,None,,,,pil_003,002,0.9,1.0,2023-03-23_13h05.35.733,stress,2023.1.0,59.995704307710646,
2,4,5,1,0,3,4,3,6,3,6,5,0,1,1,1,0,91,91,91,up,1,0.5477031999998871,None,,,,pil_003,002,0.9,1.0,2023-03-23_13h05.35.733,stress,2023.1.0,59.995704307710646,
0,4,1,3,5,2,4,6,3,6,5,0,1,1,1,1,0,92,92,92,up,1,2.1421681000001627,None,,,,pil_003,002,0.9,1.0,2023-03-23_13h05.35.733,stress,2023.1.0,59.995704307710646,
4,1,2,3,0,5,4,5,6,0,3,0,1,0,0,1,0,93,93,93,left,1,1.663241499999458,None,,,,pil_003,002,0.9,1.0,2023-03-23_13h05.35.733,stress,2023.1.0,59.995704307710646,
0,4,2,1,5,3,4,3,5,0,6,5,1,1,0,1,0,94,94,94,left,1,1.3728318000003128,None,,,,pil_003,002,0.9,1.0,2023-03-23_13h05.35.733,stress,2023.1.0,59.995704307710646,
3,5,0,1,2,4,4,5,3,6,0,0,1,1,1,1,0,95,95,95,up,1,1.118202000000565,None,,,,pil_003,002,0.9,1.0,2023-03-23_13h05.35.733,stress,2023.1.0,59.995704307710646,
3,1,5,2,0,4,4,0,3,5,6,3,1,0,0,1,0,96,96,96,left,1,0.6718398000002708,None,,,,pil_003,002,0.9,1.0,2023-03-23_13h05.35.733,stress,2023.1.0,59.995704307710646,
2,1,5,3,4,0,4,0,5,6,6,0,1,0,1,1,0,97,97,97,up,1,0.8374182999996265,None,,,,pil_003,002,0.9,1.0,2023-03-23_13h05.35.733,stress,2023.1.0,59.995704307710646,
5,3,1,0,2,4,4,5,0,3,0,5,1,1,1,1,0,98,98,98,up,1,1.073711999999432,None,,,,pil_003,002,0.9,1.0,2023-03-23_13h05.35.733,stress,2023.1.0,59.995704307710646,
5,3,1,4,2,0,4,0,5,0,3,6,1,1,1,1,0,99,99,99,up,1,1.874706999999944,None,,,,pil_003,002,0.9,1.0,2023-03-23_13h05.35.733,stress,2023.1.0,59.995704307710646,
0,5,1,2,4,3,4,3,6,0,3,5,1,0,0,1,0,100,100,100,left,1,0.9015857000003962,None,,,,pil_003,002,0.9,1.0,2023-03-23_13h05.35.733,stress,2023.1.0,59.995704307710646,
3,1,2,0,5,4,4,6,6,5,3,0,1,1,0,1,0,101,101,101,left,1,0.8783034999996744,None,,,,pil_003,002,0.9,1.0,2023-03-23_13h05.35.733,stress,2023.1.0,59.995704307710646,
4,1,3,5,0,2,4,5,6,0,3,0,1,1,1,1,0,102,102,102,up,1,0.9477324999998018,None,,,,pil_003,002,0.9,1.0,2023-03-23_13h05.35.733,stress,2023.1.0,59.995704307710646,
0,5,1,2,3,4,4,3,6,0,0,3,1,1,1,1,0,103,103,103,up,1,1.7163510999998834,None,,,,pil_003,002,0.9,1.0,2023-03-23_13h05.35.733,stress,2023.1.0,59.995704307710646,
1,2,3,5,4,0,4,6,6,3,0,5,1,0,0,1,0,104,104,104,left,1,1.0759738999995534,None,,,,pil_003,002,0.9,1.0,2023-03-23_13h05.35.733,stress,2023.1.0,59.995704307710646,
4,0,1,5,3,2,4,5,6,3,5,0,1,1,0,1,0,105,105,105,left,1,1.5712659999999232,None,,,,pil_003,002,0.9,1.0,2023-03-23_13h05.35.733,stress,2023.1.0,59.995704307710646,
5,0,1,3,4,2,4,6,0,3,3,6,1,0,0,1,0,106,106,106,left,1,1.2671369999998205,None,,,,pil_003,002,0.9,1.0,2023-03-23_13h05.35.733,stress,2023.1.0,59.995704307710646,
2,3,1,0,4,5,4,0,3,6,0,5,1,0,0,1,0,107,107,107,left,1,2.2628014000001713,None,,,,pil_003,002,0.9,1.0,2023-03-23_13h05.35.733,stress,2023.1.0,59.995704307710646,
2,3,0,1,4,5,4,6,0,0,3,5,1,1,0,1,0,108,108,108,left,1,0.5581218000006629,None,,,,pil_003,002,0.9,1.0,2023-03-23_13h05.35.733,stress,2023.1.0,59.995704307710646,
3,5,2,1,4,0,4,5,0,3,6,0,1,0,1,1,0,109,109,109,up,1,1.2422161000004053,None,,,,pil_003,002,0.9,1.0,2023-03-23_13h05.35.733,stress,2023.1.0,59.995704307710646,
5,0,3,1,2,4,4,0,6,3,5,0,1,1,0,1,0,110,110,110,left,1,1.4831295000003593,None,,,,pil_003,002,0.9,1.0,2023-03-23_13h05.35.733,stress,2023.1.0,59.995704307710646,
4,2,1,0,3,5,4,6,6,3,3,0,1,1,1,1,0,111,111,111,up,1,1.480065800000375,None,,,,pil_003,002,0.9,1.0,2023-03-23_13h05.35.733,stress,2023.1.0,59.995704307710646,
3,5,1,4,2,0,4,3,0,5,3,0,1,0,0,1,0,112,112,112,left,1,0.9075421000006827,None,,,,pil_003,002,0.9,1.0,2023-03-23_13h05.35.733,stress,2023.1.0,59.995704307710646,
3,4,5,2,1,0,4,3,5,5,6,0,1,0,1,1,0,113,113,113,left,0,1.6643451999998433,None,,,,pil_003,002,0.9,1.0,2023-03-23_13h05.35.733,stress,2023.1.0,59.995704307710646,
0,4,3,2,1,5,4,3,3,0,0,5,1,0,0,1,0,114,114,114,left,1,1.0367192000003342,None,,,,pil_003,002,0.9,1.0,2023-03-23_13h05.35.733,stress,2023.1.0,59.995704307710646,
1,2,0,5,4,3,4,0,0,5,3,5,1,1,1,1,0,115,115,115,up,1,1.618632499999876,None,,,,pil_003,002,0.9,1.0,2023-03-23_13h05.35.733,stress,2023.1.0,59.995704307710646,
1,4,5,3,2,0,4,3,0,0,5,5,1,0,0,1,0,116,116,116,left,1,2.289707300000373,None,,,,pil_003,002,0.9,1.0,2023-03-23_13h05.35.733,stress,2023.1.0,59.995704307710646,
4,0,2,1,5,3,4,6,0,5,0,5,1,1,0,1,0,117,117,117,left,1,1.1686451000005036,None,,,,pil_003,002,0.9,1.0,2023-03-23_13h05.35.733,stress,2023.1.0,59.995704307710646,
1,3,5,0,4,2,4,6,3,5,5,0,1,1,1,1,0,118,118,118,up,1,2.0972757999998066,None,,,,pil_003,002,0.9,1.0,2023-03-23_13h05.35.733,stress,2023.1.0,59.995704307710646,
4,5,1,0,2,3,4,5,5,6,3,0,1,0,0,1,0,119,119,119,left,1,1.5091225999995004,space,1.9079799000001003,,,pil_003,002,0.9,1.0,2023-03-23_13h05.35.733,stress,2023.1.0,59.995704307710646,
4,2,5,1,0,3,4,3,0,6,5,5,1,0,1,1,0,120,120,120,up,1,1.3542201999998724,None,,,,pil_003,002,0.9,1.0,2023-03-23_13h05.35.733,stress,2023.1.0,59.995704307710646,
2,5,3,0,4,1,4,3,6,0,5,0,1,0,0,1,0,121,121,121,left,1,0.6885203000001638,None,,,,pil_003,002,0.9,1.0,2023-03-23_13h05.35.733,stress,2023.1.0,59.995704307710646,
3,1,4,5,2,0,4,3,5,5,3,6,1,1,0,1,0,122,122,122,left,1,2.407645700000103,None,,,,pil_003,002,0.9,1.0,2023-03-23_13h05.35.733,stress,2023.1.0,59.995704307710646,
3,5,2,1,0,4,4,5,3,5,6,3,1,0,1,1,0,123,123,123,up,1,1.2970863999998983,None,,,,pil_003,002,0.9,1.0,2023-03-23_13h05.35.733,stress,2023.1.0,59.995704307710646,
5,3,0,1,4,2,4,0,0,6,5,6,1,0,0,1,0,124,124,124,left,1,1.453741500000433,None,,,,pil_003,002,0.9,1.0,2023-03-23_13h05.35.733,stress,2023.1.0,59.995704307710646,
1,0,2,4,5,3,4,3,6,6,3,0,1,0,1,1,0,125,125,125,up,1,2.4852984999997716,None,,,,pil_003,002,0.9,1.0,2023-03-23_13h05.35.733,stress,2023.1.0,59.995704307710646,
2,0,3,1,4,5,4,0,6,5,3,6,1,1,0,1,0,126,126,126,left,1,0.770422999999937,None,,,,pil_003,002,0.9,1.0,2023-03-23_13h05.35.733,stress,2023.1.0,59.995704307710646,
3,0,4,5,2,1,4,0,5,6,6,0,1,1,1,1,0,127,127,127,up,1,1.743185799999992,None,,,,pil_003,002,0.9,1.0,2023-03-23_13h05.35.733,stress,2023.1.0,59.995704307710646,
4,0,5,2,3,1,4,0,0,6,5,3,1,0,0,1,0,128,128,128,left,1,1.205155300000115,None,,,,pil_003,002,0.9,1.0,2023-03-23_13h05.35.733,stress,2023.1.0,59.995704307710646,
3,2,4,5,1,0,4,3,3,6,5,6,1,1,0,1,0,129,129,129,left,1,1.0578348999997615,None,,,,pil_003,002,0.9,1.0,2023-03-23_13h05.35.733,stress,2023.1.0,59.995704307710646,
1,4,5,3,2,0,4,0,5,3,0,6,1,1,1,1,0,130,130,130,up,1,1.8578612999999677,None,,,,pil_003,002,0.9,1.0,2023-03-23_13h05.35.733,stress,2023.1.0,59.995704307710646,
4,5,2,0,1,3,4,6,3,5,0,3,1,0,0,1,0,131,131,131,left,1,1.0816358000001856,None,,,,pil_003,002,0.9,1.0,2023-03-23_13h05.35.733,stress,2023.1.0,59.995704307710646,
3,1,4,2,0,5,4,3,6,6,0,5,1,1,1,1,0,132,132,132,up,1,1.0652264000000287,None,,,,pil_003,002,0.9,1.0,2023-03-23_13h05.35.733,stress,2023.1.0,59.995704307710646,
3,2,5,0,1,4,4,3,0,6,0,5,1,0,0,1,0,133,133,133,left,1,0.8385299000001396,None,,,,pil_003,002,0.9,1.0,2023-03-23_13h05.35.733,stress,2023.1.0,59.995704307710646,
3,4,0,5,2,1,4,0,3,6,5,5,1,0,0,1,0,134,134,134,left,1,0.6938736000001882,None,,,,pil_003,002,0.9,1.0,2023-03-23_13h05.35.733,stress,2023.1.0,59.995704307710646,
2,3,1,5,4,0,4,6,5,5,3,3,1,1,0,1,0,135,135,135,left,1,1.7533782999998948,None,,,,pil_003,002,0.9,1.0,2023-03-23_13h05.35.733,stress,2023.1.0,59.995704307710646,
1,4,2,3,0,5,4,5,0,3,6,3,1,0,1,1,0,136,136,136,up,1,1.2098782000002757,None,,,,pil_003,002,0.9,1.0,2023-03-23_13h05.35.733,stress,2023.1.0,59.995704307710646,
0,2,3,5,4,1,4,0,5,0,5,3,1,0,0,1,0,137,137,137,left,1,0.8783238999994865,None,,,,pil_003,002,0.9,1.0,2023-03-23_13h05.35.733,stress,2023.1.0,59.995704307710646,
0,2,5,1,3,4,4,3,0,5,6,0,1,1,0,1,0,138,138,138,left,1,0.8053596999998263,None,,,,pil_003,002,0.9,1.0,2023-03-23_13h05.35.733,stress,2023.1.0,59.995704307710646,
5,1,0,4,2,3,4,0,6,5,0,5,1,1,1,1,0,139,139,139,up,1,1.9492768999998589,None,,,,pil_003,002,0.9,1.0,2023-03-23_13h05.35.733,stress,2023.1.0,59.995704307710646,
4,5,3,0,2,1,4,3,5,0,6,6,1,1,1,1,0,140,140,140,up,1,2.082287300000644,None,,,,pil_003,002,0.9,1.0,2023-03-23_13h05.35.733,stress,2023.1.0,59.995704307710646,
0,4,2,5,3,1,4,5,0,5,6,6,1,1,1,1,0,141,141,141,up,1,1.182662100000016,None,,,,pil_003,002,0.9,1.0,2023-03-23_13h05.35.733,stress,2023.1.0,59.995704307710646,
4,1,0,2,3,5,4,3,5,0,3,5,0,1,1,1,0,142,142,142,up,1,1.354660299999523,None,,,,pil_003,002,0.9,1.0,2023-03-23_13h05.35.733,stress,2023.1.0,59.995704307710646,
4,0,1,5,3,2,4,5,6,3,6,0,1,1,0,1,0,143,143,143,left,1,0.8638529999998354,None,,,,pil_003,002,0.9,1.0,2023-03-23_13h05.35.733,stress,2023.1.0,59.995704307710646,
1,2,3,0,4,5,4,6,3,6,0,5,1,1,1,1,0,144,144,144,up,1,1.1325450000003912,None,,,,pil_003,002,0.9,1.0,2023-03-23_13h05.35.733,stress,2023.1.0,59.995704307710646,
4,2,0,1,3,5,4,5,0,0,6,5,1,1,0,1,0,145,145,145,left,1,0.7934536000002481,None,,,,pil_003,002,0.9,1.0,2023-03-23_13h05.35.733,stress,2023.1.0,59.995704307710646,
1,5,0,2,4,3,4,5,3,5,6,6,1,0,0,1,0,146,146,146,left,1,0.999234100000649,None,,,,pil_003,002,0.9,1.0,2023-03-23_13h05.35.733,stress,2023.1.0,59.995704307710646,
1,5,0,3,2,4,4,5,6,0,5,3,1,0,1,1,0,147,147,147,up,1,1.1983273999994708,None,,,,pil_003,002,0.9,1.0,2023-03-23_13h05.35.733,stress,2023.1.0,59.995704307710646,
2,5,0,3,4,1,4,0,3,5,5,0,1,0,0,1,0,148,148,148,left,1,0.6341413999998622,None,,,,pil_003,002,0.9,1.0,2023-03-23_13h05.35.733,stress,2023.1.0,59.995704307710646,
4,3,1,2,5,0,4,3,6,5,0,0,0,0,0,1,0,149,149,149,left,1,1.6565597999997408,None,,,,pil_003,002,0.9,1.0,2023-03-23_13h05.35.733,stress,2023.1.0,59.995704307710646,
3,5,0,2,1,4,4,6,0,3,5,6,1,0,0,1,0,150,150,150,left,1,1.8382364999997662,None,,,,pil_003,002,0.9,1.0,2023-03-23_13h05.35.733,stress,2023.1.0,59.995704307710646,
3,2,4,1,0,5,4,6,5,3,3,6,1,1,0,1,0,151,151,151,left,1,0.8067764999996143,None,,,,pil_003,002,0.9,1.0,2023-03-23_13h05.35.733,stress,2023.1.0,59.995704307710646,
2,5,4,0,1,3,4,5,0,6,3,6,1,0,0,1,0,152,152,152,left,1,0.5886727999995855,None,,,,pil_003,002,0.9,1.0,2023-03-23_13h05.35.733,stress,2023.1.0,59.995704307710646,
4,3,0,2,1,5,4,6,3,0,0,5,1,0,0,1,0,153,153,153,left,1,0.8579939000001104,None,,,,pil_003,002,0.9,1.0,2023-03-23_13h05.35.733,stress,2023.1.0,59.995704307710646,
0,5,1,2,4,3,4,6,5,6,3,5,1,1,0,1,0,154,154,154,left,1,2.461535299999923,None,,,,pil_003,002,0.9,1.0,2023-03-23_13h05.35.733,stress,2023.1.0,59.995704307710646,
1,4,3,0,2,5,4,5,6,6,3,5,1,1,1,1,0,155,155,155,left,0,1.4549384000001737,None,,,,pil_003,002,0.9,1.0,2023-03-23_13h05.35.733,stress,2023.1.0,59.995704307710646,
3,2,5,0,1,4,4,6,3,0,6,5,1,0,0,1,0,156,156,156,left,1,1.1302974999998696,None,,,,pil_003,002,0.9,1.0,2023-03-23_13h05.35.733,stress,2023.1.0,59.995704307710646,
5,4,0,3,2,1,4,0,5,5,3,3,1,0,1,1,0,157,157,157,up,1,1.214779599999929,None,,,,pil_003,002,0.9,1.0,2023-03-23_13h05.35.733,stress,2023.1.0,59.995704307710646,
1,5,2,4,0,3,4,5,5,6,0,3,1,1,1,1,0,158,158,158,up,1,3.0707204000000274,None,,,,pil_003,002,0.9,1.0,2023-03-23_13h05.35.733,stress,2023.1.0,59.995704307710646,
3,4,2,5,0,1,4,3,3,0,5,0,1,1,1,1,0,159,159,159,up,1,1.0184408999994048,space,1.9472566000004008,,,pil_003,002,0.9,1.0,2023-03-23_13h05.35.733,stress,2023.1.0,59.995704307710646,
4,0,1,5,3,2,4,6,5,3,5,6,0,1,1,1,0,160,160,160,up,1,1.3009523999999146,None,,,,pil_003,002,0.9,1.0,2023-03-23_13h05.35.733,stress,2023.1.0,59.995704307710646,
0,3,1,5,4,2,4,3,0,6,0,5,1,0,1,1,0,161,161,161,up,1,2.5644089000006716,None,,,,pil_003,002,0.9,1.0,2023-03-23_13h05.35.733,stress,2023.1.0,59.995704307710646,
5,2,4,1,3,0,4,5,6,3,3,0,1,1,1,1,0,162,162,162,up,1,1.2902254999999059,None,,,,pil_003,002,0.9,1.0,2023-03-23_13h05.35.733,stress,2023.1.0,59.995704307710646,
0,1,4,3,5,2,4,5,5,3,0,6,1,1,1,1,0,163,163,163,up,1,1.6589845999997124,None,,,,pil_003,002,0.9,1.0,2023-03-23_13h05.35.733,stress,2023.1.0,59.995704307710646,
5,2,1,0,3,4,4,0,6,5,5,0,1,0,0,1,0,164,164,164,left,1,1.4993345000002591,None,,,,pil_003,002,0.9,1.0,2023-03-23_13h05.35.733,stress,2023.1.0,59.995704307710646,
4,5,3,0,1,2,4,5,3,6,6,3,1,0,0,1,0,165,165,165,left,1,1.3157798000002003,None,,,,pil_003,002,0.9,1.0,2023-03-23_13h05.35.733,stress,2023.1.0,59.995704307710646,
3,5,0,1,4,2,4,0,6,0,3,5,1,0,1,1,0,166,166,166,up,1,0.9976309000003312,None,,,,pil_003,002,0.9,1.0,2023-03-23_13h05.35.733,stress,2023.1.0,59.995704307710646,
0,3,5,1,2,4,4,0,3,6,6,3,1,0,1,1,0,167,167,167,up,1,0.915868699999919,None,,,,pil_003,002,0.9,1.0,2023-03-23_13h05.35.733,stress,2023.1.0,59.995704307710646,
2,0,3,1,4,5,4,6,3,5,0,6,1,1,0,1,0,168,168,168,left,1,1.1623996999996962,None,,,,pil_003,002,0.9,1.0,2023-03-23_13h05.35.733,stress,2023.1.0,59.995704307710646,
3,0,4,2,1,5,4,5,0,3,6,0,1,1,0,1,0,169,169,169,left,1,1.2347313000000213,None,,,,pil_003,002,0.9,1.0,2023-03-23_13h05.35.733,stress,2023.1.0,59.995704307710646,
3,0,2,4,1,5,4,5,3,0,0,6,1,0,0,1,0,170,170,170,left,1,0.5916568000002371,None,,,,pil_003,002,0.9,1.0,2023-03-23_13h05.35.733,stress,2023.1.0,59.995704307710646,
1,3,4,2,5,0,4,6,3,5,3,0,1,0,1,1,0,171,171,171,up,1,0.9079970000002504,None,,,,pil_003,002,0.9,1.0,2023-03-23_13h05.35.733,stress,2023.1.0,59.995704307710646,
1,2,4,5,0,3,4,3,0,6,3,6,1,0,1,1,0,172,172,172,up,1,1.0880974000001515,None,,,,pil_003,002,0.9,1.0,2023-03-23_13h05.35.733,stress,2023.1.0,59.995704307710646,
2,5,1,4,3,0,4,3,0,5,6,5,1,0,0,1,0,173,173,173,left,1,1.0673202999996647,None,,,,pil_003,002,0.9,1.0,2023-03-23_13h05.35.733,stress,2023.1.0,59.995704307710646,
0,5,4,2,3,1,4,5,0,6,6,3,1,1,0,1,0,174,174,174,left,1,2.9781543999997666,None,,,,pil_003,002,0.9,1.0,2023-03-23_13h05.35.733,stress,2023.1.0,59.995704307710646,
1,2,0,3,4,5,4,6,3,6,3,0,1,0,0,1,0,175,175,175,left,1,0.7875606999996307,None,,,,pil_003,002,0.9,1.0,2023-03-23_13h05.35.733,stress,2023.1.0,59.995704307710646,
4,0,1,3,2,5,4,0,3,6,0,3,1,0,0,1,0,176,176,176,left,1,1.380898100000195,None,,,,pil_003,002,0.9,1.0,2023-03-23_13h05.35.733,stress,2023.1.0,59.995704307710646,
4,0,5,1,2,3,4,5,3,6,6,0,1,0,0,1,0,177,177,177,left,1,1.2212854999997944,None,,,,pil_003,002,0.9,1.0,2023-03-23_13h05.35.733,stress,2023.1.0,59.995704307710646,
2,5,3,1,0,4,4,3,6,3,5,5,1,0,1,1,0,178,178,178,up,1,0.6945943999999145,None,,,,pil_003,002,0.9,1.0,2023-03-23_13h05.35.733,stress,2023.1.0,59.995704307710646,
2,1,3,5,0,4,4,5,6,3,6,0,1,0,0,1,0,179,179,179,left,1,0.8979118000006565,None,,,,pil_003,002,0.9,1.0,2023-03-23_13h05.35.733,stress,2023.1.0,59.995704307710646,
5,0,2,4,3,1,4,0,3,5,0,6,0,1,1,1,0,180,180,180,up,1,1.4444865999994363,None,,,,pil_003,002,0.9,1.0,2023-03-23_13h05.35.733,stress,2023.1.0,59.995704307710646,
0,3,5,2,1,4,4,3,5,6,3,0,0,0,1,1,0,181,181,181,up,1,1.5333788999996614,None,,,,pil_003,002,0.9,1.0,2023-03-23_13h05.35.733,stress,2023.1.0,59.995704307710646,
2,1,3,0,4,5,4,5,0,6,6,3,1,1,1,1,0,182,182,182,up,1,0.8969732000005024,None,,,,pil_003,002,0.9,1.0,2023-03-23_13h05.35.733,stress,2023.1.0,59.995704307710646,
3,2,1,4,5,0,4,5,6,5,6,0,0,0,0,1,0,183,183,183,left,1,0.8358828000000358,None,,,,pil_003,002,0.9,1.0,2023-03-23_13h05.35.733,stress,2023.1.0,59.995704307710646,
4,2,3,5,0,1,4,3,6,5,3,5,1,1,0,1,0,184,184,184,left,1,1.3964114000000336,None,,,,pil_003,002,0.9,1.0,2023-03-23_13h05.35.733,stress,2023.1.0,59.995704307710646,
3,5,4,1,0,2,4,5,3,6,3,5,0,0,1,1,0,185,185,185,up,1,1.1795821999994587,None,,,,pil_003,002,0.9,1.0,2023-03-23_13h05.35.733,stress,2023.1.0,59.995704307710646,
2,5,0,4,1,3,4,0,3,3,6,0,0,0,0,1,0,186,186,186,left,1,0.6942064000004393,None,,,,pil_003,002,0.9,1.0,2023-03-23_13h05.35.733,stress,2023.1.0,59.995704307710646,
5,2,3,1,4,0,4,6,3,0,3,6,1,1,0,1,0,187,187,187,left,1,1.556740200000604,None,,,,pil_003,002,0.9,1.0,2023-03-23_13h05.35.733,stress,2023.1.0,59.995704307710646,
2,4,1,0,5,3,4,3,0,0,5,6,1,1,0,1,0,188,188,188,left,1,0.9358075000000099,None,,,,pil_003,002,0.9,1.0,2023-03-23_13h05.35.733,stress,2023.1.0,59.995704307710646,
1,3,2,0,4,5,4,0,5,3,5,6,1,1,0,1,0,189,189,189,left,1,0.7340635999998995,None,,,,pil_003,002,0.9,1.0,2023-03-23_13h05.35.733,stress,2023.1.0,59.995704307710646,
3,1,5,4,2,0,4,0,6,3,5,6,1,1,1,1,0,190,190,190,up,1,0.9097633000001224,None,,,,pil_003,002,0.9,1.0,2023-03-23_13h05.35.733,stress,2023.1.0,59.995704307710646,
4,1,5,0,2,3,4,5,0,3,0,6,0,1,0,1,0,191,191,191,left,1,0.6948484999993525,None,,,,pil_003,002,0.9,1.0,2023-03-23_13h05.35.733,stress,2023.1.0,59.995704307710646,
5,4,2,0,3,1,4,5,3,0,6,3,1,1,1,1,0,192,192,192,up,1,1.0936941999998453,None,,,,pil_003,002,0.9,1.0,2023-03-23_13h05.35.733,stress,2023.1.0,59.995704307710646,
1,0,5,3,4,2,4,5,6,3,0,3,0,1,1,1,0,193,193,193,up,1,1.261476099999527,None,,,,pil_003,002,0.9,1.0,2023-03-23_13h05.35.733,stress,2023.1.0,59.995704307710646,
2,4,0,3,5,1,4,0,3,6,5,6,1,0,1,1,0,194,194,194,left,0,0.656279099999665,None,,,,pil_003,002,0.9,1.0,2023-03-23_13h05.35.733,stress,2023.1.0,59.995704307710646,
2,5,3,0,1,4,4,6,3,6,5,0,1,0,0,1,0,195,195,195,left,1,0.5859283999998297,None,,,,pil_003,002,0.9,1.0,2023-03-23_13h05.35.733,stress,2023.1.0,59.995704307710646,
5,1,0,2,4,3,4,5,5,6,0,6,1,0,1,1,0,196,196,196,up,1,1.2711440000002767,None,,,,pil_003,002,0.9,1.0,2023-03-23_13h05.35.733,stress,2023.1.0,59.995704307710646,
2,4,5,3,0,1,4,3,3,5,0,6,1,1,1,1,0,197,197,197,up,1,0.907490499999767,None,,,,pil_003,002,0.9,1.0,2023-03-23_13h05.35.733,stress,2023.1.0,59.995704307710646,
4,2,5,1,3,0,4,6,0,6,3,0,1,1,0,1,0,198,198,198,left,1,1.260975000000144,None,,,,pil_003,002,0.9,1.0,2023-03-23_13h05.35.733,stress,2023.1.0,59.995704307710646,
4,1,0,3,2,5,4,5,3,3,0,5,1,1,1,1,0,199,199,199,up,1,2.0980877000001783,space,1.6826364999997168,,,pil_003,002,0.9,1.0,2023-03-23_13h05.35.733,stress,2023.1.0,59.995704307710646,
3,4,0,1,2,5,4,0,6,5,6,3,1,0,0,1,0,200,200,200,left,1,0.7076981999998679,None,,,,pil_003,002,0.9,1.0,2023-03-23_13h05.35.733,stress,2023.1.0,59.995704307710646,
1,5,2,0,4,3,4,3,6,6,0,5,1,0,0,1,0,201,201,201,left,1,0.6282584999999017,None,,,,pil_003,002,0.9,1.0,2023-03-23_13h05.35.733,stress,2023.1.0,59.995704307710646,
4,5,1,2,3,0,4,5,6,5,6,0,1,0,1,1,0,202,202,202,up,1,2.0806068000001687,None,,,,pil_003,002,0.9,1.0,2023-03-23_13h05.35.733,stress,2023.1.0,59.995704307710646,
3,0,5,4,2,1,4,6,0,5,0,5,1,0,1,1,0,203,203,203,up,1,1.2689340999995693,None,,,,pil_003,002,0.9,1.0,2023-03-23_13h05.35.733,stress,2023.1.0,59.995704307710646,
4,2,3,5,1,0,4,6,6,0,3,5,1,1,1,1,0,204,204,204,up,1,1.5560467999994216,None,,,,pil_003,002,0.9,1.0,2023-03-23_13h05.35.733,stress,2023.1.0,59.995704307710646,
4,1,5,3,0,2,4,0,3,6,3,5,1,1,0,1,0,205,205,205,left,1,1.4012652999999773,None,,,,pil_003,002,0.9,1.0,2023-03-23_13h05.35.733,stress,2023.1.0,59.995704307710646,
0,2,1,5,4,3,4,6,3,6,0,5,1,0,1,1,0,206,206,206,up,1,2.3675801000008505,None,,,,pil_003,002,0.9,1.0,2023-03-23_13h05.35.733,stress,2023.1.0,59.995704307710646,
1,0,4,2,5,3,4,0,5,3,0,5,1,0,0,1,0,207,207,207,left,1,3.1286100000006627,None,,,,pil_003,002,0.9,1.0,2023-03-23_13h05.35.733,stress,2023.1.0,59.995704307710646,
1,5,3,4,2,0,4,6,3,0,5,0,1,1,0,1,0,208,208,208,left,1,0.8932684999999765,None,,,,pil_003,002,0.9,1.0,2023-03-23_13h05.35.733,stress,2023.1.0,59.995704307710646,
2,4,5,0,3,1,4,5,0,0,6,5,1,1,1,1,0,209,209,209,up,1,0.9686728000006042,None,,,,pil_003,002,0.9,1.0,2023-03-23_13h05.35.733,stress,2023.1.0,59.995704307710646,
0,1,2,3,4,5,4,0,6,0,5,6,1,1,0,1,0,210,210,210,left,1,1.7188706000006277,None,,,,pil_003,002,0.9,1.0,2023-03-23_13h05.35.733,stress,2023.1.0,59.995704307710646,
2,1,5,3,4,0,4,3,0,0,3,5,1,1,1,1,0,211,211,211,up,1,0.7634775000005902,None,,,,pil_003,002,0.9,1.0,2023-03-23_13h05.35.733,stress,2023.1.0,59.995704307710646,
1,4,0,2,3,5,4,0,6,5,5,3,1,0,1,1,0,212,212,212,up,1,1.2591301000002204,None,,,,pil_003,002,0.9,1.0,2023-03-23_13h05.35.733,stress,2023.1.0,59.995704307710646,
1,3,5,0,4,2,4,3,6,3,5,0,1,1,1,1,0,213,213,213,up,1,1.4350514999996449,None,,,,pil_003,002,0.9,1.0,2023-03-23_13h05.35.733,stress,2023.1.0,59.995704307710646,
1,3,0,2,4,5,4,5,6,0,5,0,0,0,1,1,0,214,214,214,up,1,0.607126299999436,None,,,,pil_003,002,0.9,1.0,2023-03-23_13h05.35.733,stress,2023.1.0,59.995704307710646,
4,3,2,1,5,0,4,3,3,5,0,0,1,1,1,1,0,215,215,215,up,1,1.3885231000003841,None,,,,pil_003,002,0.9,1.0,2023-03-23_13h05.35.733,stress,2023.1.0,59.995704307710646,
0,2,4,5,1,3,4,6,5,5,0,0,1,0,1,1,0,216,216,216,up,1,2.495696300000418,None,,,,pil_003,002,0.9,1.0,2023-03-23_13h05.35.733,stress,2023.1.0,59.995704307710646,
2,4,1,0,5,3,4,5,6,3,0,5,1,1,0,1,0,217,217,217,left,1,0.8721765999998752,None,,,,pil_003,002,0.9,1.0,2023-03-23_13h05.35.733,stress,2023.1.0,59.995704307710646,
2,0,1,4,3,5,4,0,6,5,3,6,1,0,1,1,0,218,218,218,up,1,0.9947717000004559,None,,,,pil_003,002,0.9,1.0,2023-03-23_13h05.35.733,stress,2023.1.0,59.995704307710646,
4,2,0,3,1,5,4,6,0,0,3,5,1,1,0,1,0,219,219,219,left,1,0.8826019999996788,None,,,,pil_003,002,0.9,1.0,2023-03-23_13h05.35.733,stress,2023.1.0,59.995704307710646,
4,1,0,3,2,5,4,3,5,0,5,6,1,1,1,1,0,220,220,220,up,1,1.1305265000000873,None,,,,pil_003,002,0.9,1.0,2023-03-23_13h05.35.733,stress,2023.1.0,59.995704307710646,
3,2,0,5,1,4,4,5,6,3,3,0,1,1,1,1,0,221,221,221,up,1,0.7821321999999782,None,,,,pil_003,002,0.9,1.0,2023-03-23_13h05.35.733,stress,2023.1.0,59.995704307710646,
0,2,1,5,4,3,4,5,0,5,6,0,1,1,1,1,0,222,222,222,up,1,1.5896693000004234,None,,,,pil_003,002,0.9,1.0,2023-03-23_13h05.35.733,stress,2023.1.0,59.995704307710646,
4,0,2,1,5,3,4,0,0,6,5,5,1,0,0,1,0,223,223,223,left,1,1.426658800000041,None,,,,pil_003,002,0.9,1.0,2023-03-23_13h05.35.733,stress,2023.1.0,59.995704307710646,
5,4,0,2,1,3,4,6,3,6,0,3,1,0,1,1,0,224,224,224,up,1,1.1303525000002992,None,,,,pil_003,002,0.9,1.0,2023-03-23_13h05.35.733,stress,2023.1.0,59.995704307710646,
5,3,4,2,1,0,4,0,6,5,5,3,1,1,1,1,0,225,225,225,up,1,2.040621899999678,None,,,,pil_003,002,0.9,1.0,2023-03-23_13h05.35.733,stress,2023.1.0,59.995704307710646,
2,1,5,3,0,4,4,6,6,5,0,3,1,1,1,1,0,226,226,226,up,1,0.8530317999993713,None,,,,pil_003,002,0.9,1.0,2023-03-23_13h05.35.733,stress,2023.1.0,59.995704307710646,
0,2,3,1,5,4,4,3,5,5,0,0,1,1,1,1,0,227,227,227,up,1,1.8271500000000742,None,,,,pil_003,002,0.9,1.0,2023-03-23_13h05.35.733,stress,2023.1.0,59.995704307710646,
3,0,2,4,5,1,4,3,5,5,0,6,0,1,1,1,0,228,228,228,up,1,1.0696293999999398,None,,,,pil_003,002,0.9,1.0,2023-03-23_13h05.35.733,stress,2023.1.0,59.995704307710646,
0,2,5,3,1,4,4,6,0,3,6,5,1,1,0,1,0,229,229,229,left,1,1.7287120999999388,None,,,,pil_003,002,0.9,1.0,2023-03-23_13h05.35.733,stress,2023.1.0,59.995704307710646,
3,4,0,2,5,1,4,0,5,3,6,6,1,0,1,1,0,230,230,230,up,1,1.2223713000003045,None,,,,pil_003,002,0.9,1.0,2023-03-23_13h05.35.733,stress,2023.1.0,59.995704307710646,
4,2,0,1,3,5,4,3,6,6,3,0,1,0,1,1,0,231,231,231,up,1,1.8955071000000316,None,,,,pil_003,002,0.9,1.0,2023-03-23_13h05.35.733,stress,2023.1.0,59.995704307710646,
5,3,1,0,2,4,4,5,3,0,6,0,1,1,1,1,0,232,232,232,up,1,2.0751843000007284,None,,,,pil_003,002,0.9,1.0,2023-03-23_13h05.35.733,stress,2023.1.0,59.995704307710646,
4,3,5,2,1,0,4,5,6,0,0,3,1,1,1,1,0,233,233,233,up,1,0.8181957999995575,None,,,,pil_003,002,0.9,1.0,2023-03-23_13h05.35.733,stress,2023.1.0,59.995704307710646,
0,4,3,2,1,5,4,3,5,6,3,5,1,1,0,1,0,234,234,234,left,1,1.287404599999718,None,,,,pil_003,002,0.9,1.0,2023-03-23_13h05.35.733,stress,2023.1.0,59.995704307710646,
5,2,0,1,3,4,4,5,3,6,6,0,1,0,1,1,0,235,235,235,up,1,2.3795688000000155,None,,,,pil_003,002,0.9,1.0,2023-03-23_13h05.35.733,stress,2023.1.0,59.995704307710646,
0,2,3,1,5,4,4,3,0,5,6,6,1,1,1,1,0,236,236,236,up,1,1.2004071000001204,None,,,,pil_003,002,0.9,1.0,2023-03-23_13h05.35.733,stress,2023.1.0,59.995704307710646,
3,5,0,2,1,4,4,0,6,5,3,5,1,0,0,1,0,237,237,237,left,1,1.034636500000488,None,,,,pil_003,002,0.9,1.0,2023-03-23_13h05.35.733,stress,2023.1.0,59.995704307710646,
2,3,0,1,4,5,4,0,6,6,5,3,1,0,0,1,0,238,238,238,left,1,2.5771341999998185,None,,,,pil_003,002,0.9,1.0,2023-03-23_13h05.35.733,stress,2023.1.0,59.995704307710646,
2,4,0,3,5,1,4,5,0,5,6,3,1,0,0,1,0,239,239,239,left,1,0.7020394999999553,space,1.5220755000000281,,,pil_003,002,0.9,1.0,2023-03-23_13h05.35.733,stress,2023.1.0,59.995704307710646,
1,0,2,3,4,5,4,0,3,6,3,6,1,1,0,1,0,240,240,240,left,1,0.7622214000002714,None,,,,pil_003,002,0.9,1.0,2023-03-23_13h05.35.733,stress,2023.1.0,59.995704307710646,
1,3,2,5,0,4,4,5,3,3,0,6,1,0,0,1,0,241,241,241,left,1,0.5894425999995292,None,,,,pil_003,002,0.9,1.0,2023-03-23_13h05.35.733,stress,2023.1.0,59.995704307710646,
2,0,1,5,4,3,4,5,6,0,0,6,1,0,0,1,0,242,242,242,left,1,1.0431330000001253,None,,,,pil_003,002,0.9,1.0,2023-03-23_13h05.35.733,stress,2023.1.0,59.995704307710646,
0,5,2,4,1,3,4,6,3,0,3,5,0,1,1,1,0,243,243,243,up,1,1.6257372000000032,None,,,,pil_003,002,0.9,1.0,2023-03-23_13h05.35.733,stress,2023.1.0,59.995704307710646,
5,4,3,2,0,1,4,6,3,3,6,5,1,1,1,1,0,244,244,244,up,1,1.3621994999994058,None,,,,pil_003,002,0.9,1.0,2023-03-23_13h05.35.733,stress,2023.1.0,59.995704307710646,
5,3,4,1,2,0,4,6,6,3,3,5,1,1,1,1,0,245,245,245,up,1,1.383234099999754,None,,,,pil_003,002,0.9,1.0,2023-03-23_13h05.35.733,stress,2023.1.0,59.995704307710646,
1,3,5,4,0,2,4,5,6,0,5,0,1,0,1,1,0,246,246,246,up,1,1.9508077000000412,None,,,,pil_003,002,0.9,1.0,2023-03-23_13h05.35.733,stress,2023.1.0,59.995704307710646,
4,3,5,0,1,2,4,3,6,3,0,6,1,1,1,1,0,247,247,247,up,1,2.202320899999904,None,,,,pil_003,002,0.9,1.0,2023-03-23_13h05.35.733,stress,2023.1.0,59.995704307710646,
4,1,2,0,3,5,4,5,6,0,3,3,1,1,0,1,0,248,248,248,left,1,0.9355304999999134,None,,,,pil_003,002,0.9,1.0,2023-03-23_13h05.35.733,stress,2023.1.0,59.995704307710646,
4,2,1,0,5,3,4,3,0,0,5,3,1,1,1,1,0,249,249,249,up,1,1.5254107999999178,None,,,,pil_003,002,0.9,1.0,2023-03-23_13h05.35.733,stress,2023.1.0,59.995704307710646,
0,1,4,3,5,2,4,3,3,0,0,6,0,1,1,1,0,250,250,250,up,1,1.4121481999991374,None,,,,pil_003,002,0.9,1.0,2023-03-23_13h05.35.733,stress,2023.1.0,59.995704307710646,
1,4,0,5,2,3,4,3,6,5,0,5,1,1,1,1,0,251,251,251,up,1,0.9991393999998763,None,,,,pil_003,002,0.9,1.0,2023-03-23_13h05.35.733,stress,2023.1.0,59.995704307710646,
0,2,3,1,5,4,4,3,0,6,6,3,1,1,0,1,0,252,252,252,left,1,1.137524200000371,None,,,,pil_003,002,0.9,1.0,2023-03-23_13h05.35.733,stress,2023.1.0,59.995704307710646,
1,0,3,2,5,4,4,5,6,0,5,3,1,0,0,1,0,253,253,253,left,1,0.9786242000000129,None,,,,pil_003,002,0.9,1.0,2023-03-23_13h05.35.733,stress,2023.1.0,59.995704307710646,
3,0,5,2,1,4,4,3,0,5,6,0,1,0,1,1,0,254,254,254,up,1,1.587078399999882,None,,,,pil_003,002,0.9,1.0,2023-03-23_13h05.35.733,stress,2023.1.0,59.995704307710646,
0,1,3,2,5,4,4,6,3,3,5,0,1,0,0,1,0,255,255,255,left,1,1.0677150000001348,None,,,,pil_003,002,0.9,1.0,2023-03-23_13h05.35.733,stress,2023.1.0,59.995704307710646,
1,0,4,2,5,3,4,5,3,6,5,0,0,0,1,1,0,256,256,256,up,1,0.8425215999995999,None,,,,pil_003,002,0.9,1.0,2023-03-23_13h05.35.733,stress,2023.1.0,59.995704307710646,
1,3,0,2,4,5,4,3,0,5,6,3,1,0,0,1,0,257,257,257,left,1,0.5914076000008208,None,,,,pil_003,002,0.9,1.0,2023-03-23_13h05.35.733,stress,2023.1.0,59.995704307710646,
0,1,2,4,5,3,4,6,3,5,0,0,1,0,1,1,0,258,258,258,up,1,1.7583331999994698,None,,,,pil_003,002,0.9,1.0,2023-03-23_13h05.35.733,stress,2023.1.0,59.995704307710646,
1,5,4,2,3,0,4,6,5,0,6,0,1,1,0,1,0,259,259,259,left,1,0.6196684000005916,None,,,,pil_003,002,0.9,1.0,2023-03-23_13h05.35.733,stress,2023.1.0,59.995704307710646,
1,4,2,3,0,5,4,3,3,6,0,0,1,1,0,1,0,260,260,260,left,1,0.8240155000003142,None,,,,pil_003,002,0.9,1.0,2023-03-23_13h05.35.733,stress,2023.1.0,59.995704307710646,
0,3,2,5,4,1,4,5,0,0,5,3,1,0,1,1,0,261,261,261,up,1,1.0163306000013108,None,,,,pil_003,002,0.9,1.0,2023-03-23_13h05.35.733,stress,2023.1.0,59.995704307710646,
1,3,5,0,4,2,4,0,6,6,5,5,1,0,0,1,0,262,262,262,left,1,1.6002803999999742,None,,,,pil_003,002,0.9,1.0,2023-03-23_13h05.35.733,stress,2023.1.0,59.995704307710646,
3,0,5,1,4,2,4,5,0,5,6,6,0,1,0,1,0,263,263,263,left,1,1.3088336000000709,None,,,,pil_003,002,0.9,1.0,2023-03-23_13h05.35.733,stress,2023.1.0,59.995704307710646,
0,1,3,2,4,5,4,6,0,3,5,3,1,0,1,1,0,264,264,264,up,1,1.2153051999994204,None,,,,pil_003,002,0.9,1.0,2023-03-23_13h05.35.733,stress,2023.1.0,59.995704307710646,
1,3,4,0,5,2,4,5,0,6,6,5,1,1,1,1,0,265,265,265,up,1,0.9240845000003901,None,,,,pil_003,002,0.9,1.0,2023-03-23_13h05.35.733,stress,2023.1.0,59.995704307710646,
1,2,4,3,5,0,4,6,0,0,5,3,1,1,1,1,0,266,266,266,up,1,0.8214147999988199,None,,,,pil_003,002,0.9,1.0,2023-03-23_13h05.35.733,stress,2023.1.0,59.995704307710646,
4,0,5,1,2,3,4,6,0,3,3,5,1,1,0,1,0,267,267,267,left,1,2.1157903999992413,None,,,,pil_003,002,0.9,1.0,2023-03-23_13h05.35.733,stress,2023.1.0,59.995704307710646,
3,0,4,5,2,1,4,5,5,0,3,3,1,0,0,1,0,268,268,268,left,1,1.0648381000009977,None,,,,pil_003,002,0.9,1.0,2023-03-23_13h05.35.733,stress,2023.1.0,59.995704307710646,
4,0,3,2,5,1,4,3,5,6,0,5,1,1,0,1,0,269,269,269,left,1,1.0142434999997931,None,,,,pil_003,002,0.9,1.0,2023-03-23_13h05.35.733,stress,2023.1.0,59.995704307710646,
0,5,3,4,1,2,4,0,3,0,3,5,1,0,0,1,0,270,270,270,left,1,1.9917425000003277,None,,,,pil_003,002,0.9,1.0,2023-03-23_13h05.35.733,stress,2023.1.0,59.995704307710646,
2,1,3,5,0,4,4,0,6,3,5,3,1,0,0,1,0,271,271,271,left,1,2.0981479000001855,None,,,,pil_003,002,0.9,1.0,2023-03-23_13h05.35.733,stress,2023.1.0,59.995704307710646,
4,3,5,2,1,0,4,5,5,0,0,6,1,0,0,1,0,272,272,272,left,1,1.096201000000292,None,,,,pil_003,002,0.9,1.0,2023-03-23_13h05.35.733,stress,2023.1.0,59.995704307710646,
3,1,5,2,0,4,4,6,3,0,6,3,1,1,0,1,0,273,273,273,left,1,1.2157356000006985,None,,,,pil_003,002,0.9,1.0,2023-03-23_13h05.35.733,stress,2023.1.0,59.995704307710646,
1,3,2,5,0,4,4,6,5,6,0,3,1,0,0,1,0,274,274,274,left,1,0.9024353999993764,None,,,,pil_003,002,0.9,1.0,2023-03-23_13h05.35.733,stress,2023.1.0,59.995704307710646,
2,0,1,4,5,3,4,5,5,0,3,3,0,0,0,1,0,275,275,275,left,1,0.7009968000002118,None,,,,pil_003,002,0.9,1.0,2023-03-23_13h05.35.733,stress,2023.1.0,59.995704307710646,
0,2,3,1,5,4,4,5,3,6,6,0,1,0,0,1,0,276,276,276,left,1,1.1498219999994035,None,,,,pil_003,002,0.9,1.0,2023-03-23_13h05.35.733,stress,2023.1.0,59.995704307710646,
4,0,5,1,3,2,4,0,5,6,3,5,1,1,0,1,0,277,277,277,left,1,1.0203105000000505,None,,,,pil_003,002,0.9,1.0,2023-03-23_13h05.35.733,stress,2023.1.0,59.995704307710646,
5,0,1,3,2,4,4,6,3,3,5,0,1,1,1,1,0,278,278,278,up,1,2.707452299999204,None,,,,pil_003,002,0.9,1.0,2023-03-23_13h05.35.733,stress,2023.1.0,59.995704307710646,
5,1,3,4,2,0,4,0,6,6,3,3,1,0,1,1,0,279,279,279,up,1,1.2254916000001685,space,1.507399500000247,,,pil_003,002,0.9,1.0,2023-03-23_13h05.35.733,stress,2023.1.0,59.995704307710646,
0,4,3,2,5,1,4,0,6,5,3,0,1,1,0,1,0,280,280,280,left,1,1.2851365999995323,None,,,,pil_003,002,0.9,1.0,2023-03-23_13h05.35.733,stress,2023.1.0,59.995704307710646,
4,0,2,3,1,5,4,0,3,6,5,6,1,0,0,1,0,281,281,281,left,1,1.1622237999999925,None,,,,pil_003,002,0.9,1.0,2023-03-23_13h05.35.733,stress,2023.1.0,59.995704307710646,
2,0,5,4,1,3,4,6,3,0,5,3,1,0,1,1,0,282,282,282,up,1,2.7301681000008102,None,,,,pil_003,002,0.9,1.0,2023-03-23_13h05.35.733,stress,2023.1.0,59.995704307710646,
4,1,0,5,2,3,4,5,0,6,5,6,1,0,1,1,0,283,283,283,up,1,1.0448273999991216,None,,,,pil_003,002,0.9,1.0,2023-03-23_13h05.35.733,stress,2023.1.0,59.995704307710646,
0,5,1,2,4,3,4,6,6,3,0,5,1,0,0,1,0,284,284,284,left,1,0.8679990000000544,None,,,,pil_003,002,0.9,1.0,2023-03-23_13h05.35.733,stress,2023.1.0,59.995704307710646,
0,1,4,3,2,5,4,0,6,5,5,0,1,1,1,1,0,285,285,285,up,1,1.4248879000006127,None,,,,pil_003,002,0.9,1.0,2023-03-23_13h05.35.733,stress,2023.1.0,59.995704307710646,
3,1,0,4,5,2,4,5,3,6,0,5,1,1,0,1,0,286,286,286,left,1,0.8022553999999218,None,,,,pil_003,002,0.9,1.0,2023-03-23_13h05.35.733,stress,2023.1.0,59.995704307710646,
5,1,2,4,3,0,4,6,5,0,3,3,1,0,0,1,0,287,287,287,left,1,1.572072400000252,None,,,,pil_003,002,0.9,1.0,2023-03-23_13h05.35.733,stress,2023.1.0,59.995704307710646,
0,5,3,2,4,1,4,3,5,5,3,6,1,1,0,1,0,288,288,288,left,1,1.2128388000000996,None,,,,pil_003,002,0.9,1.0,2023-03-23_13h05.35.733,stress,2023.1.0,59.995704307710646,
3,5,2,4,0,1,4,3,6,5,3,0,1,0,1,1,0,289,289,289,up,1,0.9802445000004809,None,,,,pil_003,002,0.9,1.0,2023-03-23_13h05.35.733,stress,2023.1.0,59.995704307710646,
1,0,3,5,4,2,4,0,5,6,3,0,1,0,0,1,0,290,290,290,left,1,0.9654989999999088,left,0.225644199999806,,,pil_003,002,0.9,1.0,2023-03-23_13h05.35.733,stress,2023.1.0,59.995704307710646,
5,4,0,1,3,2,4,6,3,0,3,5,1,0,1,1,0,291,291,291,up,1,1.1307730999997148,None,,,,pil_003,002,0.9,1.0,2023-03-23_13h05.35.733,stress,2023.1.0,59.995704307710646,
4,0,3,2,1,5,4,3,3,0,5,0,1,0,0,1,0,292,292,292,left,1,0.8986225000007835,None,,,,pil_003,002,0.9,1.0,2023-03-23_13h05.35.733,stress,2023.1.0,59.995704307710646,
4,3,2,5,1,0,4,6,0,3,5,0,1,0,0,1,0,293,293,293,left,1,1.2916578999993362,None,,,,pil_003,002,0.9,1.0,2023-03-23_13h05.35.733,stress,2023.1.0,59.995704307710646,
3,4,0,1,5,2,4,6,0,5,3,6,1,0,1,1,0,294,294,294,up,1,1.110817799999495,None,,,,pil_003,002,0.9,1.0,2023-03-23_13h05.35.733,stress,2023.1.0,59.995704307710646,
4,1,3,0,2,5,4,6,6,5,3,0,0,1,0,1,0,295,295,295,left,1,1.2605806000010489,None,,,,pil_003,002,0.9,1.0,2023-03-23_13h05.35.733,stress,2023.1.0,59.995704307710646,
2,4,1,0,5,3,4,3,3,5,0,0,1,0,0,1,0,296,296,296,left,1,0.7667956999994203,None,,,,pil_003,002,0.9,1.0,2023-03-23_13h05.35.733,stress,2023.1.0,59.995704307710646,
2,5,1,3,0,4,4,3,6,6,5,3,1,0,0,1,0,297,297,297,left,1,1.4606489999987389,None,,,,pil_003,002,0.9,1.0,2023-03-23_13h05.35.733,stress,2023.1.0,59.995704307710646,
2,1,4,3,0,5,4,5,5,0,3,6,1,1,1,1,0,298,298,298,up,1,0.5856750000002648,None,,,,pil_003,002,0.9,1.0,2023-03-23_13h05.35.733,stress,2023.1.0,59.995704307710646,
4,0,2,3,1,5,4,0,3,0,5,5,1,0,0,1,0,299,299,299,left,1,0.9377660999998625,None,,,,pil_003,002,0.9,1.0,2023-03-23_13h05.35.733,stress,2023.1.0,59.995704307710646,
5,3,0,1,2,4,4,6,5,5,0,3,1,0,1,1,0,300,300,300,up,1,1.6812281999991683,None,,,,pil_003,002,0.9,1.0,2023-03-23_13h05.35.733,stress,2023.1.0,59.995704307710646,
1,2,4,5,3,0,4,5,0,0,6,6,1,0,0,1,0,301,301,301,left,1,1.0928306999994675,None,,,,pil_003,002,0.9,1.0,2023-03-23_13h05.35.733,stress,2023.1.0,59.995704307710646,
5,1,2,4,0,3,4,6,6,0,3,5,1,0,1,1,0,302,302,302,up,1,2.168347499999072,None,,,,pil_003,002,0.9,1.0,2023-03-23_13h05.35.733,stress,2023.1.0,59.995704307710646,
4,5,3,2,0,1,4,5,6,5,0,0,1,0,0,1,0,303,303,303,left,1,1.2535313999997015,None,,,,pil_003,002,0.9,1.0,2023-03-23_13h05.35.733,stress,2023.1.0,59.995704307710646,
4,1,2,3,0,5,4,0,3,0,6,6,1,1,1,1,0,304,304,304,up,1,1.6088993000012124,None,,,,pil_003,002,0.9,1.0,2023-03-23_13h05.35.733,stress,2023.1.0,59.995704307710646,
5,1,4,2,0,3,4,5,0,5,3,6,1,0,0,1,0,305,305,305,left,1,0.938087300000916,None,,,,pil_003,002,0.9,1.0,2023-03-23_13h05.35.733,stress,2023.1.0,59.995704307710646,
5,1,3,0,2,4,4,6,5,3,3,6,1,1,0,1,0,306,306,306,left,1,1.191030199999659,None,,,,pil_003,002,0.9,1.0,2023-03-23_13h05.35.733,stress,2023.1.0,59.995704307710646,
0,2,1,5,4,3,4,6,0,0,5,6,1,1,1,1,0,307,307,307,up,1,0.9051202000009653,None,,,,pil_003,002,0.9,1.0,2023-03-23_13h05.35.733,stress,2023.1.0,59.995704307710646,
1,2,0,3,5,4,4,5,3,0,5,3,1,0,1,1,0,308,308,308,up,1,0.9248897999987093,None,,,,pil_003,002,0.9,1.0,2023-03-23_13h05.35.733,stress,2023.1.0,59.995704307710646,
5,4,1,0,3,2,4,0,5,3,6,6,1,0,0,1,0,309,309,309,left,1,1.418679799999154,None,,,,pil_003,002,0.9,1.0,2023-03-23_13h05.35.733,stress,2023.1.0,59.995704307710646,
4,3,0,5,2,1,4,0,6,0,3,5,1,1,1,1,0,310,310,310,up,1,1.745028999999704,None,,,,pil_003,002,0.9,1.0,2023-03-23_13h05.35.733,stress,2023.1.0,59.995704307710646,
4,5,0,3,1,2,4,6,0,0,3,6,0,0,0,1,0,311,311,311,left,1,0.7720036000009713,None,,,,pil_003,002,0.9,1.0,2023-03-23_13h05.35.733,stress,2023.1.0,59.995704307710646,
1,3,5,2,0,4,4,0,6,3,0,6,1,1,1,1,0,312,312,312,up,1,0.7693581000003178,None,,,,pil_003,002,0.9,1.0,2023-03-23_13h05.35.733,stress,2023.1.0,59.995704307710646,
3,0,4,5,2,1,4,6,5,3,0,6,1,1,0,1,0,313,313,313,left,1,0.7707085000001825,None,,,,pil_003,002,0.9,1.0,2023-03-23_13h05.35.733,stress,2023.1.0,59.995704307710646,
2,5,3,1,4,0,4,6,3,3,5,5,0,0,0,1,0,314,314,314,left,1,1.5163361000013538,None,,,,pil_003,002,0.9,1.0,2023-03-23_13h05.35.733,stress,2023.1.0,59.995704307710646,
1,0,3,2,5,4,4,6,6,5,5,3,1,0,0,1,0,315,315,315,left,1,0.9643462000003638,None,,,,pil_003,002,0.9,1.0,2023-03-23_13h05.35.733,stress,2023.1.0,59.995704307710646,
2,3,5,0,1,4,4,6,3,6,3,5,0,0,0,1,0,316,316,316,left,1,0.6494965000001685,None,,,,pil_003,002,0.9,1.0,2023-03-23_13h05.35.733,stress,2023.1.0,59.995704307710646,
5,4,1,3,2,0,4,3,0,5,6,0,1,1,1,1,0,317,317,317,up,1,1.143667700000151,None,,,,pil_003,002,0.9,1.0,2023-03-23_13h05.35.733,stress,2023.1.0,59.995704307710646,
4,5,2,1,0,3,4,0,6,6,0,5,0,1,0,1,0,318,318,318,left,1,0.9957083000008424,None,,,,pil_003,002,0.9,1.0,2023-03-23_13h05.35.733,stress,2023.1.0,59.995704307710646,
0,5,2,4,3,1,4,3,3,5,0,6,1,0,0,1,0,319,319,319,left,1,1.3236219999998866,space,1.8405805999991571,,,pil_003,002,0.9,1.0,2023-03-23_13h05.35.733,stress,2023.1.0,59.995704307710646,
4,2,0,3,1,5,4,0,5,6,6,0,1,1,1,1,0,320,320,320,up,1,1.4709526999995433,None,,,,pil_003,002,0.9,1.0,2023-03-23_13h05.35.733,stress,2023.1.0,59.995704307710646,
1,5,2,4,3,0,4,3,6,5,0,0,1,1,1,1,0,321,321,321,up,1,0.8354634000006627,None,,,,pil_003,002,0.9,1.0,2023-03-23_13h05.35.733,stress,2023.1.0,59.995704307710646,
2,4,0,5,1,3,4,6,6,0,5,0,1,0,0,1,0,322,322,322,left,1,0.7255192000011448,None,,,,pil_003,002,0.9,1.0,2023-03-23_13h05.35.733,stress,2023.1.0,59.995704307710646,
1,2,0,5,3,4,4,6,5,6,3,5,1,1,1,1,0,323,323,323,up,1,0.9885920999986411,None,,,,pil_003,002,0.9,1.0,2023-03-23_13h05.35.733,stress,2023.1.0,59.995704307710646,
3,4,2,1,5,0,4,6,6,3,3,0,1,1,0,1,0,324,324,324,left,1,0.9168955000004644,None,,,,pil_003,002,0.9,1.0,2023-03-23_13h05.35.733,stress,2023.1.0,59.995704307710646,
1,4,3,5,2,0,4,0,5,0,6,6,1,0,1,1,0,325,325,325,up,1,0.5075028999999631,None,,,,pil_003,002,0.9,1.0,2023-03-23_13h05.35.733,stress,2023.1.0,59.995704307710646,
1,3,5,0,2,4,4,0,5,3,3,6,1,1,1,1,0,326,326,326,up,1,0.7737887000002956,None,,,,pil_003,002,0.9,1.0,2023-03-23_13h05.35.733,stress,2023.1.0,59.995704307710646,
0,5,3,4,2,1,4,3,3,0,5,5,0,1,0,1,0,327,327,327,left,1,0.7714794000003167,None,,,,pil_003,002,0.9,1.0,2023-03-23_13h05.35.733,stress,2023.1.0,59.995704307710646,
0,1,5,4,3,2,4,3,5,6,0,6,1,1,1,1,0,328,328,328,up,1,1.667859099999987,None,,,,pil_003,002,0.9,1.0,2023-03-23_13h05.35.733,stress,2023.1.0,59.995704307710646,
1,2,5,0,3,4,4,6,3,5,3,0,0,1,0,1,0,329,329,329,left,1,0.710567500000252,None,,,,pil_003,002,0.9,1.0,2023-03-23_13h05.35.733,stress,2023.1.0,59.995704307710646,
1,2,5,3,0,4,4,3,3,0,5,0,1,0,0,1,0,330,330,330,left,1,0.6488902000000962,None,,,,pil_003,002,0.9,1.0,2023-03-23_13h05.35.733,stress,2023.1.0,59.995704307710646,
5,4,1,2,0,3,4,5,6,3,0,6,1,1,0,1,0,331,331,331,left,1,1.2103174000003492,None,,,,pil_003,002,0.9,1.0,2023-03-23_13h05.35.733,stress,2023.1.0,59.995704307710646,
4,3,0,2,1,5,4,0,3,6,3,5,1,0,0,1,0,332,332,332,left,1,1.4525456999999733,None,,,,pil_003,002,0.9,1.0,2023-03-23_13h05.35.733,stress,2023.1.0,59.995704307710646,
1,0,2,4,3,5,4,5,0,3,6,3,0,0,0,1,0,333,333,333,left,1,0.5578299000007974,None,,,,pil_003,002,0.9,1.0,2023-03-23_13h05.35.733,stress,2023.1.0,59.995704307710646,
2,1,4,5,3,0,4,3,6,0,0,5,1,1,1,1,0,334,334,334,up,1,1.7680927000001248,None,,,,pil_003,002,0.9,1.0,2023-03-23_13h05.35.733,stress,2023.1.0,59.995704307710646,
4,3,1,2,5,0,4,5,0,3,0,6,1,1,1,1,0,335,335,335,up,1,0.6005746999999246,None,,,,pil_003,002,0.9,1.0,2023-03-23_13h05.35.733,stress,2023.1.0,59.995704307710646,
3,0,4,2,1,5,4,3,3,0,0,5,1,1,1,1,0,336,336,336,up,1,2.0466538999990007,None,,,,pil_003,002,0.9,1.0,2023-03-23_13h05.35.733,stress,2023.1.0,59.995704307710646,
0,3,5,4,2,1,4,5,5,3,6,6,1,0,0,1,0,337,337,337,left,1,1.0932257000004029,None,,,,pil_003,002,0.9,1.0,2023-03-23_13h05.35.733,stress,2023.1.0,59.995704307710646,
0,2,3,5,4,1,4,6,5,5,0,3,1,0,1,1,0,338,338,338,up,1,2.617146099999445,None,,,,pil_003,002,0.9,1.0,2023-03-23_13h05.35.733,stress,2023.1.0,59.995704307710646,
1,5,0,3,4,2,4,5,0,5,3,0,1,1,1,1,0,339,339,339,up,1,0.795691600000282,None,,,,pil_003,002,0.9,1.0,2023-03-23_13h05.35.733,stress,2023.1.0,59.995704307710646,
4,5,3,0,1,2,4,5,0,5,3,0,1,1,1,1,0,340,340,340,up,1,1.4870066000003135,None,,,,pil_003,002,0.9,1.0,2023-03-23_13h05.35.733,stress,2023.1.0,59.995704307710646,
1,2,5,3,0,4,4,5,6,0,6,3,1,1,0,1,0,341,341,341,left,1,0.8168617999999697,None,,,,pil_003,002,0.9,1.0,2023-03-23_13h05.35.733,stress,2023.1.0,59.995704307710646,
1,3,5,2,4,0,4,5,5,3,0,6,1,0,1,1,0,342,342,342,up,1,0.6669081000000006,None,,,,pil_003,002,0.9,1.0,2023-03-23_13h05.35.733,stress,2023.1.0,59.995704307710646,
0,5,2,1,4,3,4,6,5,6,0,3,1,0,0,1,0,343,343,343,left,1,1.2448960000001534,None,,,,pil_003,002,0.9,1.0,2023-03-23_13h05.35.733,stress,2023.1.0,59.995704307710646,
3,5,2,4,0,1,4,3,5,6,6,0,1,1,0,1,0,344,344,344,left,1,1.8533237999999983,None,,,,pil_003,002,0.9,1.0,2023-03-23_13h05.35.733,stress,2023.1.0,59.995704307710646,
3,4,0,1,5,2,4,5,6,0,3,3,1,0,0,1,0,345,345,345,left,1,1.0370124999990367,None,,,,pil_003,002,0.9,1.0,2023-03-23_13h05.35.733,stress,2023.1.0,59.995704307710646,
4,2,0,1,3,5,4,3,6,3,0,6,1,0,1,1,0,346,346,346,up,1,0.9782665000002453,None,,,,pil_003,002,0.9,1.0,2023-03-23_13h05.35.733,stress,2023.1.0,59.995704307710646,
4,5,3,0,1,2,4,6,0,6,5,3,1,1,1,1,0,347,347,347,up,1,1.4944950000008248,None,,,,pil_003,002,0.9,1.0,2023-03-23_13h05.35.733,stress,2023.1.0,59.995704307710646,
3,2,1,5,4,0,4,0,5,6,5,3,1,0,1,1,0,348,348,348,up,1,0.758749299999181,None,,,,pil_003,002,0.9,1.0,2023-03-23_13h05.35.733,stress,2023.1.0,59.995704307710646,
2,4,3,1,0,5,4,3,6,0,6,0,1,0,1,1,0,349,349,349,up,1,0.6909267999999429,None,,,,pil_003,002,0.9,1.0,2023-03-23_13h05.35.733,stress,2023.1.0,59.995704307710646,
1,0,2,5,4,3,4,6,3,5,3,5,1,1,1,1,0,350,350,350,up,1,0.8354731000017637,None,,,,pil_003,002,0.9,1.0,2023-03-23_13h05.35.733,stress,2023.1.0,59.995704307710646,
4,0,2,5,1,3,4,0,6,5,0,3,1,1,0,1,0,351,351,351,left,1,1.2721259000009013,None,,,,pil_003,002,0.9,1.0,2023-03-23_13h05.35.733,stress,2023.1.0,59.995704307710646,
1,4,0,2,5,3,4,6,5,0,3,5,1,0,1,1,0,352,352,352,up,1,0.5812516999994841,None,,,,pil_003,002,0.9,1.0,2023-03-23_13h05.35.733,stress,2023.1.0,59.995704307710646,
1,2,4,5,3,0,4,6,6,5,5,3,1,1,1,1,0,353,353,353,up,1,0.5937590000012278,None,,,,pil_003,002,0.9,1.0,2023-03-23_13h05.35.733,stress,2023.1.0,59.995704307710646,
1,4,5,3,0,2,4,6,3,6,5,0,0,0,0,1,0,354,354,354,left,1,0.736433300000499,None,,,,pil_003,002,0.9,1.0,2023-03-23_13h05.35.733,stress,2023.1.0,59.995704307710646,
2,4,0,5,1,3,4,0,5,3,6,5,1,1,1,1,0,355,355,355,up,1,1.1062356999991607,None,,,,pil_003,002,0.9,1.0,2023-03-23_13h05.35.733,stress,2023.1.0,59.995704307710646,
2,1,3,0,5,4,4,0,3,0,6,3,1,1,1,1,0,356,356,356,up,1,0.6178421999993589,None,,,,pil_003,002,0.9,1.0,2023-03-23_13h05.35.733,stress,2023.1.0,59.995704307710646,
2,0,1,5,3,4,4,0,6,5,6,3,1,1,0,1,0,357,357,357,left,1,0.5445846000002348,None,,,,pil_003,002,0.9,1.0,2023-03-23_13h05.35.733,stress,2023.1.0,59.995704307710646,
1,4,5,0,2,3,4,3,5,0,6,3,1,0,1,1,0,358,358,358,up,1,0.8319976999991923,None,,,,pil_003,002,0.9,1.0,2023-03-23_13h05.35.733,stress,2023.1.0,59.995704307710646,
1,0,2,4,3,5,4,5,0,6,0,3,1,0,1,1,0,359,359,359,up,1,0.5918366000005335,space,1.6453779000003124,,,pil_003,002,0.9,1.0,2023-03-23_13h05.35.733,stress,2023.1.0,59.995704307710646,
3,0,1,2,5,4,4,6,0,5,3,0,0,1,1,1,0,360,360,360,up,1,1.0462991000003967,None,,,,pil_003,002,0.9,1.0,2023-03-23_13h05.35.733,stress,2023.1.0,59.995704307710646,
4,1,5,2,0,3,4,6,5,3,0,3,1,0,0,1,0,361,361,361,left,1,1.352361799999926,None,,,,pil_003,002,0.9,1.0,2023-03-23_13h05.35.733,stress,2023.1.0,59.995704307710646,
5,1,4,3,0,2,4,5,3,6,0,0,1,0,0,1,0,362,362,362,left,1,1.045822699999917,None,,,,pil_003,002,0.9,1.0,2023-03-23_13h05.35.733,stress,2023.1.0,59.995704307710646,
1,3,4,5,2,0,4,5,0,6,5,3,1,1,0,1,0,363,363,363,left,1,0.9793530000006285,None,,,,pil_003,002,0.9,1.0,2023-03-23_13h05.35.733,stress,2023.1.0,59.995704307710646,
0,5,1,3,4,2,4,0,0,3,3,5,1,0,1,1,0,364,364,364,up,1,1.243341399998826,None,,,,pil_003,002,0.9,1.0,2023-03-23_13h05.35.733,stress,2023.1.0,59.995704307710646,
2,1,3,4,0,5,4,3,5,3,5,0,1,0,0,1,0,365,365,365,left,1,0.6055500000002212,None,,,,pil_003,002,0.9,1.0,2023-03-23_13h05.35.733,stress,2023.1.0,59.995704307710646,
4,3,2,1,5,0,4,0,3,6,5,0,1,0,1,1,0,366,366,366,up,1,1.286615000000893,None,,,,pil_003,002,0.9,1.0,2023-03-23_13h05.35.733,stress,2023.1.0,59.995704307710646,
2,3,4,5,1,0,4,3,0,5,6,5,1,1,0,1,0,367,367,367,left,1,0.6601035999992746,None,,,,pil_003,002,0.9,1.0,2023-03-23_13h05.35.733,stress,2023.1.0,59.995704307710646,
3,1,2,4,5,0,4,6,0,3,0,6,1,0,1,1,0,368,368,368,up,1,0.7990617000014026,None,,,,pil_003,002,0.9,1.0,2023-03-23_13h05.35.733,stress,2023.1.0,59.995704307710646,
4,1,0,2,5,3,4,3,0,3,5,6,1,0,1,1,0,369,369,369,up,1,0.9855136999995011,None,,,,pil_003,002,0.9,1.0,2023-03-23_13h05.35.733,stress,2023.1.0,59.995704307710646,
5,0,1,4,2,3,4,5,5,3,0,0,1,0,1,1,0,370,370,370,up,1,1.6023741000008158,None,,,,pil_003,002,0.9,1.0,2023-03-23_13h05.35.733,stress,2023.1.0,59.995704307710646,
5,2,0,1,3,4,4,0,6,3,6,5,1,0,1,1,0,371,371,371,left,0,1.3436383999996906,None,,,,pil_003,002,0.9,1.0,2023-03-23_13h05.35.733,stress,2023.1.0,59.995704307710646,
4,3,0,1,2,5,4,6,5,3,0,0,1,0,1,1,0,372,372,372,up,1,1.7580663999997341,None,,,,pil_003,002,0.9,1.0,2023-03-23_13h05.35.733,stress,2023.1.0,59.995704307710646,
3,1,5,0,4,2,4,5,0,5,6,0,1,0,0,1,0,373,373,373,left,1,1.4651267000008374,None,,,,pil_003,002,0.9,1.0,2023-03-23_13h05.35.733,stress,2023.1.0,59.995704307710646,
1,2,3,5,0,4,4,6,0,3,5,3,1,1,0,1,0,374,374,374,left,1,0.7171192999994673,None,,,,pil_003,002,0.9,1.0,2023-03-23_13h05.35.733,stress,2023.1.0,59.995704307710646,
0,3,4,1,2,5,4,6,0,5,0,3,1,1,1,1,0,375,375,375,up,1,0.8669977000008657,None,,,,pil_003,002,0.9,1.0,2023-03-23_13h05.35.733,stress,2023.1.0,59.995704307710646,
5,2,4,3,1,0,4,6,5,3,6,5,1,1,1,1,0,376,376,376,up,1,1.481583500000852,None,,,,pil_003,002,0.9,1.0,2023-03-23_13h05.35.733,stress,2023.1.0,59.995704307710646,
5,0,3,2,4,1,4,0,6,5,3,6,1,1,1,1,0,377,377,377,up,1,1.9021068000001833,None,,,,pil_003,002,0.9,1.0,2023-03-23_13h05.35.733,stress,2023.1.0,59.995704307710646,
0,5,2,4,1,3,4,6,0,5,3,6,1,1,1,1,0,378,378,378,up,1,1.9390526999995927,None,,,,pil_003,002,0.9,1.0,2023-03-23_13h05.35.733,stress,2023.1.0,59.995704307710646,
3,0,1,5,2,4,4,0,5,5,6,3,1,1,0,1,0,379,379,379,left,1,1.6657360999997763,None,,,,pil_003,002,0.9,1.0,2023-03-23_13h05.35.733,stress,2023.1.0,59.995704307710646,
0,5,4,2,3,1,4,3,0,6,5,5,1,0,0,1,0,380,380,380,left,1,1.9091396999992867,None,,,,pil_003,002,0.9,1.0,2023-03-23_13h05.35.733,stress,2023.1.0,59.995704307710646,
1,2,3,4,0,5,4,3,5,5,3,6,1,1,0,1,0,381,381,381,left,1,1.0975240000007034,None,,,,pil_003,002,0.9,1.0,2023-03-23_13h05.35.733,stress,2023.1.0,59.995704307710646,
1,4,2,3,5,0,4,3,3,6,0,0,0,1,1,1,0,382,382,382,up,1,1.970164600001226,None,,,,pil_003,002,0.9,1.0,2023-03-23_13h05.35.733,stress,2023.1.0,59.995704307710646,
1,5,0,2,3,4,4,5,6,0,5,0,1,1,1,1,0,383,383,383,up,1,0.7436309000004258,None,,,,pil_003,002,0.9,1.0,2023-03-23_13h05.35.733,stress,2023.1.0,59.995704307710646,
3,4,0,2,1,5,4,3,6,6,0,5,1,0,1,1,0,384,384,384,up,1,1.1608914999997069,None,,,,pil_003,002,0.9,1.0,2023-03-23_13h05.35.733,stress,2023.1.0,59.995704307710646,
2,1,3,5,0,4,4,3,3,6,6,5,1,1,1,1,0,385,385,385,up,1,0.9474666999994952,None,,,,pil_003,002,0.9,1.0,2023-03-23_13h05.35.733,stress,2023.1.0,59.995704307710646,
1,2,5,4,0,3,4,3,3,5,6,0,1,0,0,1,0,386,386,386,left,1,0.88331449999896,None,,,,pil_003,002,0.9,1.0,2023-03-23_13h05.35.733,stress,2023.1.0,59.995704307710646,
2,3,4,5,1,0,4,0,6,5,3,5,1,0,1,1,0,387,387,387,up,1,0.614969000000201,None,,,,pil_003,002,0.9,1.0,2023-03-23_13h05.35.733,stress,2023.1.0,59.995704307710646,
5,0,1,3,4,2,4,3,5,0,6,0,1,0,0,1,0,388,388,388,left,1,1.0878343999993376,None,,,,pil_003,002,0.9,1.0,2023-03-23_13h05.35.733,stress,2023.1.0,59.995704307710646,
4,5,3,1,0,2,4,6,5,5,3,0,1,1,1,1,0,389,389,389,up,1,1.7263306000004377,None,,,,pil_003,002,0.9,1.0,2023-03-23_13h05.35.733,stress,2023.1.0,59.995704307710646,
0,2,5,1,4,3,4,5,3,0,3,6,1,0,1,1,0,390,390,390,up,1,1.0700331999996706,None,,,,pil_003,002,0.9,1.0,2023-03-23_13h05.35.733,stress,2023.1.0,59.995704307710646,
2,1,5,0,4,3,4,6,5,0,6,5,1,0,1,1,0,391,391,391,up,1,0.7198220999998739,None,,,,pil_003,002,0.9,1.0,2023-03-23_13h05.35.733,stress,2023.1.0,59.995704307710646,
5,1,4,0,2,3,4,6,3,3,5,0,1,0,0,1,0,392,392,392,left,1,1.6208350999986578,None,,,,pil_003,002,0.9,1.0,2023-03-23_13h05.35.733,stress,2023.1.0,59.995704307710646,
5,3,4,0,2,1,4,0,3,0,3,6,1,0,0,1,0,393,393,393,left,1,1.126970799999981,None,,,,pil_003,002,0.9,1.0,2023-03-23_13h05.35.733,stress,2023.1.0,59.995704307710646,
2,3,5,0,4,1,4,5,5,6,3,0,1,0,1,1,0,394,394,394,up,1,1.4024652000007336,None,,,,pil_003,002,0.9,1.0,2023-03-23_13h05.35.733,stress,2023.1.0,59.995704307710646,
5,1,3,2,4,0,4,3,6,5,0,6,1,0,1,1,0,395,395,395,up,1,1.163724900001398,None,,,,pil_003,002,0.9,1.0,2023-03-23_13h05.35.733,stress,2023.1.0,59.995704307710646,
5,4,2,0,1,3,4,6,3,6,0,5,1,1,0,1,0,396,396,396,left,1,1.4340563999994629,None,,,,pil_003,002,0.9,1.0,2023-03-23_13h05.35.733,stress,2023.1.0,59.995704307710646,
1,3,4,5,2,0,4,5,3,0,3,0,1,1,1,1,0,397,397,397,up,1,0.8087885999993887,None,,,,pil_003,002,0.9,1.0,2023-03-23_13h05.35.733,stress,2023.1.0,59.995704307710646,
4,2,0,1,5,3,4,6,3,0,5,6,1,1,1,1,0,398,398,398,up,1,1.5301464000003762,None,,,,pil_003,002,0.9,1.0,2023-03-23_13h05.35.733,stress,2023.1.0,59.995704307710646,
1,5,2,0,3,4,4,3,3,0,6,5,1,0,1,1,0,399,399,399,up,1,0.6986875999991753,space,3.3304976999988867,,,pil_003,002,0.9,1.0,2023-03-23_13h05.35.733,stress,2023.1.0,59.995704307710646,
,,,,,,,,,,,,,,,,,,,,,,,,,space,0.9193957999996201,pil_003,002,0.9,1.0,2023-03-23_13h05.35.733,stress,2023.1.0,59.995704307710646,
