pos1,pos2,pos3,pos4,pos5,pos6,shape1,shape2,shape3,shape4,shape5,shape6,singleton,target_color,target_orientation,cue_validity,trials.thisRepN,trials.thisTrialN,trials.thisN,trials.thisIndex,search_response.keys,search_response.corr,search_response.rt,key_block.keys,key_block.rt,end_key.keys,end_key.rt,participant,session,distractor_prevalence,validity,date,expName,psychopyVersion,frameRate,
2,3,5,1,0,4,4,0,5,0,5,6,1,1,0,1,0,0,0,0,left,1,2.9322086000001946,None,,,,pil_003,001,0.5,1.0,2023-03-23_12h17.41.877,stress,2023.1.0,59.96857646565681,
0,1,3,2,4,5,4,5,0,3,6,3,1,1,0,1,0,1,1,1,left,1,2.1466361000002507,None,,,,pil_003,001,0.5,1.0,2023-03-23_12h17.41.877,stress,2023.1.0,59.96857646565681,
1,0,3,4,5,2,4,3,6,5,5,0,1,0,0,1,0,2,2,2,left,1,1.3529539999999542,None,,,,pil_003,001,0.5,1.0,2023-03-23_12h17.41.877,stress,2023.1.0,59.96857646565681,
1,4,2,5,3,0,4,3,0,6,5,3,1,0,0,1,0,3,3,3,left,1,0.9267517000007501,None,,,,pil_003,001,0.5,1.0,2023-03-23_12h17.41.877,stress,2023.1.0,59.96857646565681,
4,0,2,3,5,1,4,0,6,6,5,3,0,1,0,1,0,4,4,4,left,1,2.5045650000001842,None,,,,pil_003,001,0.5,1.0,2023-03-23_12h17.41.877,stress,2023.1.0,59.96857646565681,
1,0,3,5,4,2,4,3,5,6,0,6,0,1,0,1,0,5,5,5,left,1,0.8941796999997678,None,,,,pil_003,001,0.5,1.0,2023-03-23_12h17.41.877,stress,2023.1.0,59.96857646565681,
2,1,5,4,0,3,4,6,0,5,3,0,0,1,1,1,0,6,6,6,up,1,1.4804536999999982,None,,,,pil_003,001,0.5,1.0,2023-03-23_12h17.41.877,stress,2023.1.0,59.96857646565681,
5,0,3,1,2,4,4,0,6,6,5,3,1,1,1,1,0,7,7,7,up,1,1.5124392999996417,None,,,,pil_003,001,0.5,1.0,2023-03-23_12h17.41.877,stress,2023.1.0,59.96857646565681,
3,4,2,5,0,1,4,6,0,6,0,3,1,0,1,1,0,8,8,8,up,1,1.543084899999485,None,,,,pil_003,001,0.5,1.0,2023-03-23_12h17.41.877,stress,2023.1.0,59.96857646565681,
5,4,0,1,3,2,4,5,3,0,3,6,0,0,1,1,0,9,9,9,up,1,2.257183600000644,None,,,,pil_003,001,0.5,1.0,2023-03-23_12h17.41.877,stress,2023.1.0,59.96857646565681,
1,0,2,4,3,5,4,3,0,0,5,6,0,1,0,1,0,10,10,10,left,1,1.1704964999998992,None,,,,pil_003,001,0.5,1.0,2023-03-23_12h17.41.877,stress,2023.1.0,59.96857646565681,
3,1,2,5,4,0,4,5,0,3,3,6,1,1,0,1,0,11,11,11,left,1,1.4723012999993443,None,,,,pil_003,001,0.5,1.0,2023-03-23_12h17.41.877,stress,2023.1.0,59.96857646565681,
3,2,5,0,4,1,4,3,3,6,5,5,1,1,0,1,0,12,12,12,left,1,1.6243101999998544,None,,,,pil_003,001,0.5,1.0,2023-03-23_12h17.41.877,stress,2023.1.0,59.96857646565681,
0,2,5,1,3,4,4,5,3,6,6,0,1,0,1,1,0,13,13,13,up,1,2.0914247000000614,None,,,,pil_003,001,0.5,1.0,2023-03-23_12h17.41.877,stress,2023.1.0,59.96857646565681,
3,4,0,1,2,5,4,0,6,5,3,6,1,1,1,1,0,14,14,14,up,1,1.2126044000006004,None,,,,pil_003,001,0.5,1.0,2023-03-23_12h17.41.877,stress,2023.1.0,59.96857646565681,
5,2,0,1,4,3,4,6,3,5,3,0,0,0,1,1,0,15,15,15,up,1,1.6492948999994042,None,,,,pil_003,001,0.5,1.0,2023-03-23_12h17.41.877,stress,2023.1.0,59.96857646565681,
2,4,0,3,1,5,4,0,6,3,0,3,0,1,1,1,0,16,16,16,left,0,2.1355929000001197,None,,,,pil_003,001,0.5,1.0,2023-03-23_12h17.41.877,stress,2023.1.0,59.96857646565681,
4,2,3,0,1,5,4,0,6,3,6,5,0,1,0,1,0,17,17,17,left,1,2.778650899999775,None,,,,pil_003,001,0.5,1.0,2023-03-23_12h17.41.877,stress,2023.1.0,59.96857646565681,
2,0,5,1,4,3,4,0,6,5,0,6,0,1,0,1,0,18,18,18,left,1,1.4243339999993623,None,,,,pil_003,001,0.5,1.0,2023-03-23_12h17.41.877,stress,2023.1.0,59.96857646565681,
4,1,0,5,2,3,4,3,6,0,6,0,0,1,1,1,0,19,19,19,up,1,1.3577542999992147,None,,,,pil_003,001,0.5,1.0,2023-03-23_12h17.41.877,stress,2023.1.0,59.96857646565681,
5,2,1,3,0,4,4,6,0,3,3,0,1,1,0,1,0,20,20,20,left,1,1.8517391000004864,None,,,,pil_003,001,0.5,1.0,2023-03-23_12h17.41.877,stress,2023.1.0,59.96857646565681,
2,0,3,1,4,5,4,5,6,3,0,6,0,0,0,1,0,21,21,21,left,1,0.8375936000002184,None,,,,pil_003,001,0.5,1.0,2023-03-23_12h17.41.877,stress,2023.1.0,59.96857646565681,
3,1,0,2,4,5,4,6,0,3,6,3,1,0,1,1,0,22,22,22,up,1,1.2707015000005413,None,,,,pil_003,001,0.5,1.0,2023-03-23_12h17.41.877,stress,2023.1.0,59.96857646565681,
2,4,1,3,5,0,4,0,5,6,3,6,0,1,0,1,0,23,23,23,left,1,1.8686422999999195,None,,,,pil_003,001,0.5,1.0,2023-03-23_12h17.41.877,stress,2023.1.0,59.96857646565681,
2,0,5,3,4,1,4,0,6,3,3,5,0,1,1,1,0,24,24,24,up,1,1.1056632999998328,None,,,,pil_003,001,0.5,1.0,2023-03-23_12h17.41.877,stress,2023.1.0,59.96857646565681,
2,5,4,3,1,0,4,3,5,3,0,5,1,0,1,1,0,25,25,25,up,1,0.953653999999915,None,,,,pil_003,001,0.5,1.0,2023-03-23_12h17.41.877,stress,2023.1.0,59.96857646565681,
4,2,3,0,1,5,4,3,0,5,6,6,1,1,0,1,0,26,26,26,left,1,1.1800982000004296,None,,,,pil_003,001,0.5,1.0,2023-03-23_12h17.41.877,stress,2023.1.0,59.96857646565681,
3,5,4,2,1,0,4,0,3,0,6,6,0,1,0,1,0,27,27,27,left,1,0.824808800000028,None,,,,pil_003,001,0.5,1.0,2023-03-23_12h17.41.877,stress,2023.1.0,59.96857646565681,
2,5,1,3,0,4,4,5,0,3,6,6,0,0,1,1,0,28,28,28,up,1,0.9122720999994272,None,,,,pil_003,001,0.5,1.0,2023-03-23_12h17.41.877,stress,2023.1.0,59.96857646565681,
5,0,2,3,4,1,4,3,6,6,0,0,1,1,0,1,0,29,29,29,left,1,1.5315438000006907,None,,,,pil_003,001,0.5,1.0,2023-03-23_12h17.41.877,stress,2023.1.0,59.96857646565681,
1,2,5,4,3,0,4,0,0,6,5,3,1,0,1,1,0,30,30,30,up,1,1.2736108999997668,None,,,,pil_003,001,0.5,1.0,2023-03-23_12h17.41.877,stress,2023.1.0,59.96857646565681,
3,2,0,4,5,1,4,3,0,3,5,6,1,0,1,1,0,31,31,31,up,1,0.9852702000007412,None,,,,pil_003,001,0.5,1.0,2023-03-23_12h17.41.877,stress,2023.1.0,59.96857646565681,
2,1,3,4,5,0,4,6,5,5,0,3,0,0,0,1,0,32,32,32,left,1,0.8907951999999568,None,,,,pil_003,001,0.5,1.0,2023-03-23_12h17.41.877,stress,2023.1.0,59.96857646565681,
1,0,3,2,4,5,4,0,3,6,3,5,1,0,1,1,0,33,33,33,up,1,0.7412897000003795,None,,,,pil_003,001,0.5,1.0,2023-03-23_12h17.41.877,stress,2023.1.0,59.96857646565681,
2,3,4,0,1,5,4,0,6,0,5,5,1,1,1,1,0,34,34,34,up,1,2.1108745999999883,None,,,,pil_003,001,0.5,1.0,2023-03-23_12h17.41.877,stress,2023.1.0,59.96857646565681,
1,5,2,0,4,3,4,3,0,5,0,6,1,1,0,1,0,35,35,35,left,1,0.9907755000003817,None,,,,pil_003,001,0.5,1.0,2023-03-23_12h17.41.877,stress,2023.1.0,59.96857646565681,
3,2,5,1,4,0,4,0,6,0,3,3,1,1,1,1,0,36,36,36,up,1,0.8382946000001539,None,,,,pil_003,001,0.5,1.0,2023-03-23_12h17.41.877,stress,2023.1.0,59.96857646565681,
1,5,3,4,0,2,4,6,5,3,6,3,1,1,0,1,0,37,37,37,left,1,0.8032086000002892,None,,,,pil_003,001,0.5,1.0,2023-03-23_12h17.41.877,stress,2023.1.0,59.96857646565681,
0,3,5,2,4,1,4,5,6,0,3,3,1,0,1,1,0,38,38,38,up,1,1.3774364999999307,None,,,,pil_003,001,0.5,1.0,2023-03-23_12h17.41.877,stress,2023.1.0,59.96857646565681,
1,0,2,4,5,3,4,5,0,0,3,5,1,1,1,1,0,39,39,39,up,1,2.273067600000104,space,236.45755760000065,,,pil_003,001,0.5,1.0,2023-03-23_12h17.41.877,stress,2023.1.0,59.96857646565681,
1,4,2,3,0,5,4,5,0,6,6,5,1,1,0,1,0,40,40,40,left,1,2.4651952999993227,None,,,,pil_003,001,0.5,1.0,2023-03-23_12h17.41.877,stress,2023.1.0,59.96857646565681,
0,1,5,4,2,3,4,5,3,5,0,0,0,0,0,1,0,41,41,41,left,1,2.542657999999392,None,,,,pil_003,001,0.5,1.0,2023-03-23_12h17.41.877,stress,2023.1.0,59.96857646565681,
3,0,4,1,5,2,4,5,3,6,6,3,1,1,0,1,0,42,42,42,left,1,1.9108138999999937,None,,,,pil_003,001,0.5,1.0,2023-03-23_12h17.41.877,stress,2023.1.0,59.96857646565681,
4,0,5,2,3,1,4,5,6,3,0,0,0,0,0,1,0,43,43,43,left,1,1.5730467000003046,None,,,,pil_003,001,0.5,1.0,2023-03-23_12h17.41.877,stress,2023.1.0,59.96857646565681,
3,2,4,0,5,1,4,6,3,5,5,3,0,0,1,1,0,44,44,44,up,1,3.0624377000003733,None,,,,pil_003,001,0.5,1.0,2023-03-23_12h17.41.877,stress,2023.1.0,59.96857646565681,
0,3,2,1,5,4,4,6,0,3,6,5,1,1,1,1,0,45,45,45,up,1,2.639578399999664,None,,,,pil_003,001,0.5,1.0,2023-03-23_12h17.41.877,stress,2023.1.0,59.96857646565681,
5,0,1,2,3,4,4,6,0,5,0,3,1,0,1,1,0,46,46,46,up,1,3.8308631999998397,None,,,,pil_003,001,0.5,1.0,2023-03-23_12h17.41.877,stress,2023.1.0,59.96857646565681,
4,2,1,0,5,3,4,5,6,5,3,6,1,1,1,1,0,47,47,47,up,1,3.5668473999994603,None,,,,pil_003,001,0.5,1.0,2023-03-23_12h17.41.877,stress,2023.1.0,59.96857646565681,
1,3,2,5,0,4,4,0,0,5,5,3,1,1,1,1,0,48,48,48,up,1,1.6976102999997238,None,,,,pil_003,001,0.5,1.0,2023-03-23_12h17.41.877,stress,2023.1.0,59.96857646565681,
4,2,1,5,3,0,4,6,3,0,5,5,1,0,0,1,0,49,49,49,left,1,1.6554019999994125,None,,,,pil_003,001,0.5,1.0,2023-03-23_12h17.41.877,stress,2023.1.0,59.96857646565681,
0,4,3,5,1,2,4,5,0,0,6,3,0,0,1,1,0,50,50,50,up,1,1.2342080000007627,None,,,,pil_003,001,0.5,1.0,2023-03-23_12h17.41.877,stress,2023.1.0,59.96857646565681,
1,2,5,4,3,0,4,0,6,5,0,5,0,1,1,1,0,51,51,51,up,1,1.1143261000006532,None,,,,pil_003,001,0.5,1.0,2023-03-23_12h17.41.877,stress,2023.1.0,59.96857646565681,
0,5,3,1,4,2,4,0,3,5,6,0,1,0,0,1,0,52,52,52,left,1,1.1998695999991469,None,,,,pil_003,001,0.5,1.0,2023-03-23_12h17.41.877,stress,2023.1.0,59.96857646565681,
1,4,2,0,3,5,4,0,5,6,3,3,0,0,1,1,0,53,53,53,up,1,2.15628469999956,None,,,,pil_003,001,0.5,1.0,2023-03-23_12h17.41.877,stress,2023.1.0,59.96857646565681,
4,2,1,3,0,5,4,3,5,0,6,6,0,1,1,1,0,54,54,54,up,1,1.5515816999995877,None,,,,pil_003,001,0.5,1.0,2023-03-23_12h17.41.877,stress,2023.1.0,59.96857646565681,
1,4,5,0,3,2,4,0,6,6,0,5,0,0,0,1,0,55,55,55,left,1,0.9735061000001224,None,,,,pil_003,001,0.5,1.0,2023-03-23_12h17.41.877,stress,2023.1.0,59.96857646565681,
3,1,2,5,4,0,4,3,5,0,0,6,1,1,1,1,0,56,56,56,up,1,1.84683270000005,None,,,,pil_003,001,0.5,1.0,2023-03-23_12h17.41.877,stress,2023.1.0,59.96857646565681,
1,4,3,5,0,2,4,3,0,6,5,5,0,1,1,1,0,57,57,57,up,1,1.7157091999997647,None,,,,pil_003,001,0.5,1.0,2023-03-23_12h17.41.877,stress,2023.1.0,59.96857646565681,
2,4,1,0,3,5,4,6,3,5,0,0,0,1,0,1,0,58,58,58,left,1,1.02859030000036,None,,,,pil_003,001,0.5,1.0,2023-03-23_12h17.41.877,stress,2023.1.0,59.96857646565681,
5,2,1,4,0,3,4,0,3,5,3,6,0,0,1,1,0,59,59,59,up,1,1.8362126000001808,None,,,,pil_003,001,0.5,1.0,2023-03-23_12h17.41.877,stress,2023.1.0,59.96857646565681,
1,5,3,2,0,4,4,3,0,6,3,6,1,0,1,1,0,60,60,60,up,1,0.79253559999961,None,,,,pil_003,001,0.5,1.0,2023-03-23_12h17.41.877,stress,2023.1.0,59.96857646565681,
4,2,0,1,5,3,4,3,0,5,0,5,0,1,0,1,0,61,61,61,left,1,1.3564495000000534,None,,,,pil_003,001,0.5,1.0,2023-03-23_12h17.41.877,stress,2023.1.0,59.96857646565681,
1,4,2,3,5,0,4,5,0,3,5,6,1,1,1,1,0,62,62,62,up,1,0.7802644000003056,None,,,,pil_003,001,0.5,1.0,2023-03-23_12h17.41.877,stress,2023.1.0,59.96857646565681,
3,1,4,2,5,0,4,5,0,6,6,3,0,1,0,1,0,63,63,63,left,1,1.7055485000000772,None,,,,pil_003,001,0.5,1.0,2023-03-23_12h17.41.877,stress,2023.1.0,59.96857646565681,
4,1,3,0,5,2,4,3,5,0,5,3,0,0,0,1,0,64,64,64,left,1,1.2680916999997862,None,,,,pil_003,001,0.5,1.0,2023-03-23_12h17.41.877,stress,2023.1.0,59.96857646565681,
5,3,1,4,0,2,4,0,3,3,5,6,0,1,0,1,0,65,65,65,left,1,1.6587628999996014,None,,,,pil_003,001,0.5,1.0,2023-03-23_12h17.41.877,stress,2023.1.0,59.96857646565681,
3,1,5,0,4,2,4,3,0,0,5,5,1,1,0,1,0,66,66,66,left,1,1.0609404999995604,None,,,,pil_003,001,0.5,1.0,2023-03-23_12h17.41.877,stress,2023.1.0,59.96857646565681,
0,5,1,3,4,2,4,6,6,3,3,5,1,0,0,1,0,67,67,67,left,1,1.0554462000000058,None,,,,pil_003,001,0.5,1.0,2023-03-23_12h17.41.877,stress,2023.1.0,59.96857646565681,
3,2,0,1,5,4,4,3,5,6,0,5,0,1,1,1,0,68,68,68,up,1,1.9429731000000174,None,,,,pil_003,001,0.5,1.0,2023-03-23_12h17.41.877,stress,2023.1.0,59.96857646565681,
3,4,1,5,2,0,4,5,0,3,3,5,1,1,0,1,0,69,69,69,left,1,0.7485606999998708,None,,,,pil_003,001,0.5,1.0,2023-03-23_12h17.41.877,stress,2023.1.0,59.96857646565681,
4,3,1,0,5,2,4,0,5,6,5,0,0,1,0,1,0,70,70,70,left,1,1.322800100000677,None,,,,pil_003,001,0.5,1.0,2023-03-23_12h17.41.877,stress,2023.1.0,59.96857646565681,
5,4,1,2,0,3,4,5,6,5,0,3,1,0,0,1,0,71,71,71,left,1,1.188640200000009,None,,,,pil_003,001,0.5,1.0,2023-03-23_12h17.41.877,stress,2023.1.0,59.96857646565681,
3,4,1,5,2,0,4,0,3,3,5,5,1,1,0,1,0,72,72,72,left,1,1.8509721999998874,None,,,,pil_003,001,0.5,1.0,2023-03-23_12h17.41.877,stress,2023.1.0,59.96857646565681,
2,3,0,5,4,1,4,3,6,0,5,3,0,0,1,1,0,73,73,73,up,1,1.2764069999993808,None,,,,pil_003,001,0.5,1.0,2023-03-23_12h17.41.877,stress,2023.1.0,59.96857646565681,
5,0,3,2,1,4,4,5,6,5,3,3,0,0,1,1,0,74,74,74,up,1,1.7660972000003312,None,,,,pil_003,001,0.5,1.0,2023-03-23_12h17.41.877,stress,2023.1.0,59.96857646565681,
5,2,0,4,3,1,4,5,0,6,6,3,1,0,1,1,0,75,75,75,up,1,2.6965603999997256,None,,,,pil_003,001,0.5,1.0,2023-03-23_12h17.41.877,stress,2023.1.0,59.96857646565681,
5,0,4,1,3,2,4,6,5,0,6,0,0,0,1,1,0,76,76,76,up,1,1.874855099999877,None,,,,pil_003,001,0.5,1.0,2023-03-23_12h17.41.877,stress,2023.1.0,59.96857646565681,
4,5,1,3,0,2,4,3,0,0,6,5,0,0,1,1,0,77,77,77,left,0,2.0031410999999935,None,,,,pil_003,001,0.5,1.0,2023-03-23_12h17.41.877,stress,2023.1.0,59.96857646565681,
4,3,5,1,0,2,4,0,5,5,3,0,1,0,0,1,0,78,78,78,left,1,1.3028960999999981,None,,,,pil_003,001,0.5,1.0,2023-03-23_12h17.41.877,stress,2023.1.0,59.96857646565681,
1,3,2,0,5,4,4,5,6,3,0,3,1,1,1,1,0,79,79,79,up,1,0.8592400999996244,space,3.8409043999999994,,,pil_003,001,0.5,1.0,2023-03-23_12h17.41.877,stress,2023.1.0,59.96857646565681,
5,0,4,3,2,1,4,0,5,3,6,3,0,0,0,1,0,80,80,80,left,1,1.2122128000000885,None,,,,pil_003,001,0.5,1.0,2023-03-23_12h17.41.877,stress,2023.1.0,59.96857646565681,
5,1,3,2,0,4,4,3,5,5,6,0,1,1,1,1,0,81,81,81,left,0,0.948112900000524,None,,,,pil_003,001,0.5,1.0,2023-03-23_12h17.41.877,stress,2023.1.0,59.96857646565681,
2,4,0,3,5,1,4,6,0,6,3,0,0,1,1,1,0,82,82,82,up,1,0.9872875999999451,None,,,,pil_003,001,0.5,1.0,2023-03-23_12h17.41.877,stress,2023.1.0,59.96857646565681,
0,4,3,2,5,1,4,6,0,3,5,0,1,0,0,1,0,83,83,83,left,1,1.330689500000517,None,,,,pil_003,001,0.5,1.0,2023-03-23_12h17.41.877,stress,2023.1.0,59.96857646565681,
1,5,0,3,4,2,4,5,0,3,0,6,1,0,1,1,0,84,84,84,up,1,1.4313523000000714,None,,,,pil_003,001,0.5,1.0,2023-03-23_12h17.41.877,stress,2023.1.0,59.96857646565681,
5,4,3,0,2,1,4,0,5,6,5,3,1,1,1,1,0,85,85,85,up,1,1.4217382000006182,None,,,,pil_003,001,0.5,1.0,2023-03-23_12h17.41.877,stress,2023.1.0,59.96857646565681,
4,2,0,3,1,5,4,6,5,6,0,0,1,1,0,1,0,86,86,86,left,1,1.8955974999998944,None,,,,pil_003,001,0.5,1.0,2023-03-23_12h17.41.877,stress,2023.1.0,59.96857646565681,
2,3,5,0,4,1,4,0,5,3,5,6,0,0,0,1,0,87,87,87,left,1,2.016868400000021,None,,,,pil_003,001,0.5,1.0,2023-03-23_12h17.41.877,stress,2023.1.0,59.96857646565681,
5,3,2,0,4,1,4,5,5,6,0,3,1,1,1,1,0,88,88,88,up,1,1.7789923000000272,None,,,,pil_003,001,0.5,1.0,2023-03-23_12h17.41.877,stress,2023.1.0,59.96857646565681,
5,4,2,1,0,3,4,5,6,3,0,5,0,1,1,1,0,89,89,89,up,1,2.1000998999998046,None,,,,pil_003,001,0.5,1.0,2023-03-23_12h17.41.877,stress,2023.1.0,59.96857646565681,
1,3,2,5,4,0,4,0,5,3,6,3,0,0,1,1,0,90,90,90,up,1,1.013690900000256,None,,,,pil_003,001,0.5,1.0,2023-03-23_12h17.41.877,stress,2023.1.0,59.96857646565681,
1,4,0,3,2,5,4,3,3,6,0,6,0,1,1,1,0,91,91,91,up,1,0.6641159000000698,None,,,,pil_003,001,0.5,1.0,2023-03-23_12h17.41.877,stress,2023.1.0,59.96857646565681,
2,3,5,4,1,0,4,5,6,3,3,6,0,1,0,1,0,92,92,92,left,1,1.1507031999999526,None,,,,pil_003,001,0.5,1.0,2023-03-23_12h17.41.877,stress,2023.1.0,59.96857646565681,
1,2,3,5,4,0,4,6,3,3,5,0,1,1,0,1,0,93,93,93,left,1,0.9423956999999064,None,,,,pil_003,001,0.5,1.0,2023-03-23_12h17.41.877,stress,2023.1.0,59.96857646565681,
5,0,4,1,2,3,4,0,6,5,6,3,0,0,0,1,0,94,94,94,left,1,2.011890300000232,None,,,,pil_003,001,0.5,1.0,2023-03-23_12h17.41.877,stress,2023.1.0,59.96857646565681,
5,0,4,1,3,2,4,5,6,0,0,3,1,1,0,1,0,95,95,95,left,1,1.651170699999966,None,,,,pil_003,001,0.5,1.0,2023-03-23_12h17.41.877,stress,2023.1.0,59.96857646565681,
5,3,4,0,1,2,4,5,3,0,5,3,0,1,0,1,0,96,96,96,left,1,0.9516497000004165,None,,,,pil_003,001,0.5,1.0,2023-03-23_12h17.41.877,stress,2023.1.0,59.96857646565681,
2,5,0,4,1,3,4,3,5,0,5,3,0,1,1,1,0,97,97,97,up,1,1.9903864999996586,None,,,,pil_003,001,0.5,1.0,2023-03-23_12h17.41.877,stress,2023.1.0,59.96857646565681,
5,4,1,2,3,0,4,6,0,0,3,3,0,0,1,1,0,98,98,98,up,1,2.147943399999349,None,,,,pil_003,001,0.5,1.0,2023-03-23_12h17.41.877,stress,2023.1.0,59.96857646565681,
1,4,2,0,5,3,4,6,5,3,0,6,0,1,0,1,0,99,99,99,left,1,0.8901026000003185,None,,,,pil_003,001,0.5,1.0,2023-03-23_12h17.41.877,stress,2023.1.0,59.96857646565681,
3,1,2,5,4,0,4,3,5,5,6,6,1,0,1,1,0,100,100,100,up,1,1.7896755000001576,None,,,,pil_003,001,0.5,1.0,2023-03-23_12h17.41.877,stress,2023.1.0,59.96857646565681,
1,2,0,5,4,3,4,6,0,3,0,3,0,0,1,1,0,101,101,101,up,1,1.2876618000000235,None,,,,pil_003,001,0.5,1.0,2023-03-23_12h17.41.877,stress,2023.1.0,59.96857646565681,
0,4,3,2,1,5,4,3,5,6,3,0,0,0,1,1,0,102,102,102,up,1,1.2229479999996329,None,,,,pil_003,001,0.5,1.0,2023-03-23_12h17.41.877,stress,2023.1.0,59.96857646565681,
5,4,1,0,3,2,4,0,6,5,0,6,1,0,0,1,0,103,103,103,left,1,1.3239761000004364,None,,,,pil_003,001,0.5,1.0,2023-03-23_12h17.41.877,stress,2023.1.0,59.96857646565681,
3,4,5,0,1,2,4,6,6,5,3,0,1,1,0,1,0,104,104,104,left,1,1.6659885000008217,None,,,,pil_003,001,0.5,1.0,2023-03-23_12h17.41.877,stress,2023.1.0,59.96857646565681,
2,0,5,3,1,4,4,3,6,5,0,3,1,0,1,1,0,105,105,105,up,1,1.861624999999549,None,,,,pil_003,001,0.5,1.0,2023-03-23_12h17.41.877,stress,2023.1.0,59.96857646565681,
2,4,1,0,3,5,4,0,6,3,0,5,1,1,1,1,0,106,106,106,up,1,1.2176940999997896,None,,,,pil_003,001,0.5,1.0,2023-03-23_12h17.41.877,stress,2023.1.0,59.96857646565681,
2,0,3,4,1,5,4,0,5,0,6,3,0,0,1,1,0,107,107,107,up,1,2.1175873000001957,None,,,,pil_003,001,0.5,1.0,2023-03-23_12h17.41.877,stress,2023.1.0,59.96857646565681,
2,4,5,1,3,0,4,5,5,6,0,3,1,0,1,1,0,108,108,108,up,1,1.0480729999999312,None,,,,pil_003,001,0.5,1.0,2023-03-23_12h17.41.877,stress,2023.1.0,59.96857646565681,
3,0,5,4,1,2,4,3,3,5,5,6,1,1,0,1,0,109,109,109,left,1,0.7319612000001143,None,,,,pil_003,001,0.5,1.0,2023-03-23_12h17.41.877,stress,2023.1.0,59.96857646565681,
3,0,4,1,5,2,4,3,6,3,5,6,0,0,1,1,0,110,110,110,up,1,0.8051912000000812,None,,,,pil_003,001,0.5,1.0,2023-03-23_12h17.41.877,stress,2023.1.0,59.96857646565681,
1,5,3,2,0,4,4,3,3,6,6,0,1,0,0,1,0,111,111,111,left,1,1.1279273000000103,None,,,,pil_003,001,0.5,1.0,2023-03-23_12h17.41.877,stress,2023.1.0,59.96857646565681,
4,1,5,2,3,0,4,0,3,5,5,3,0,1,1,1,0,112,112,112,up,1,2.0829437000002144,None,,,,pil_003,001,0.5,1.0,2023-03-23_12h17.41.877,stress,2023.1.0,59.96857646565681,
4,3,5,2,0,1,4,0,3,6,5,5,1,0,0,1,0,113,113,113,left,1,2.091457900000023,None,,,,pil_003,001,0.5,1.0,2023-03-23_12h17.41.877,stress,2023.1.0,59.96857646565681,
1,5,3,4,0,2,4,3,0,6,5,6,0,0,1,1,0,114,114,114,up,1,1.4069531000004645,None,,,,pil_003,001,0.5,1.0,2023-03-23_12h17.41.877,stress,2023.1.0,59.96857646565681,
5,1,0,2,4,3,4,5,6,0,5,6,0,0,1,1,0,115,115,115,up,1,3.1061650999999983,None,,,,pil_003,001,0.5,1.0,2023-03-23_12h17.41.877,stress,2023.1.0,59.96857646565681,
2,5,3,0,4,1,4,3,5,0,0,6,0,1,0,1,0,116,116,116,left,1,1.2516660999999658,None,,,,pil_003,001,0.5,1.0,2023-03-23_12h17.41.877,stress,2023.1.0,59.96857646565681,
2,1,4,0,3,5,4,0,0,5,6,3,0,0,0,1,0,117,117,117,left,1,0.8192021999993813,None,,,,pil_003,001,0.5,1.0,2023-03-23_12h17.41.877,stress,2023.1.0,59.96857646565681,
1,2,5,4,3,0,4,3,6,5,5,0,1,0,1,1,0,118,118,118,up,1,2.241397299999335,None,,,,pil_003,001,0.5,1.0,2023-03-23_12h17.41.877,stress,2023.1.0,59.96857646565681,
4,3,0,2,1,5,4,5,6,0,6,5,1,0,1,1,0,119,119,119,up,1,1.9187652999999045,space,6.3676017999996475,,,pil_003,001,0.5,1.0,2023-03-23_12h17.41.877,stress,2023.1.0,59.96857646565681,
0,5,2,4,1,3,4,0,3,0,6,6,0,1,1,1,0,120,120,120,up,1,2.259805300000153,None,,,,pil_003,001,0.5,1.0,2023-03-23_12h17.41.877,stress,2023.1.0,59.96857646565681,
3,5,1,4,0,2,4,5,3,6,3,5,0,1,1,1,0,121,121,121,up,1,2.0840396999992663,None,,,,pil_003,001,0.5,1.0,2023-03-23_12h17.41.877,stress,2023.1.0,59.96857646565681,
3,0,4,2,1,5,4,6,5,5,6,3,1,1,1,1,0,122,122,122,up,1,0.8003059000002395,None,,,,pil_003,001,0.5,1.0,2023-03-23_12h17.41.877,stress,2023.1.0,59.96857646565681,
3,4,0,1,2,5,4,5,6,3,5,3,1,1,0,1,0,123,123,123,left,1,0.8985855000000811,None,,,,pil_003,001,0.5,1.0,2023-03-23_12h17.41.877,stress,2023.1.0,59.96857646565681,
5,2,3,1,0,4,4,5,5,0,6,3,0,1,1,1,0,124,124,124,up,1,2.4346888000000035,None,,,,pil_003,001,0.5,1.0,2023-03-23_12h17.41.877,stress,2023.1.0,59.96857646565681,
2,4,5,3,1,0,4,3,5,6,3,5,0,0,0,1,0,125,125,125,left,1,1.6349176000003354,None,,,,pil_003,001,0.5,1.0,2023-03-23_12h17.41.877,stress,2023.1.0,59.96857646565681,
1,2,5,0,4,3,4,3,0,3,0,5,1,0,0,1,0,126,126,126,left,1,0.9334369999996852,None,,,,pil_003,001,0.5,1.0,2023-03-23_12h17.41.877,stress,2023.1.0,59.96857646565681,
1,5,2,0,3,4,4,3,3,6,0,5,1,0,1,1,0,127,127,127,up,1,1.1590663000006316,None,,,,pil_003,001,0.5,1.0,2023-03-23_12h17.41.877,stress,2023.1.0,59.96857646565681,
2,0,3,1,4,5,4,6,6,0,0,5,0,0,1,1,0,128,128,128,up,1,2.326849499999298,None,,,,pil_003,001,0.5,1.0,2023-03-23_12h17.41.877,stress,2023.1.0,59.96857646565681,
2,5,0,1,3,4,4,3,5,3,0,5,0,0,0,1,0,129,129,129,left,1,0.6429703999992853,None,,,,pil_003,001,0.5,1.0,2023-03-23_12h17.41.877,stress,2023.1.0,59.96857646565681,
5,3,0,2,4,1,4,0,0,6,3,3,1,0,0,1,0,130,130,130,left,1,1.891347499999938,None,,,,pil_003,001,0.5,1.0,2023-03-23_12h17.41.877,stress,2023.1.0,59.96857646565681,
4,2,1,0,5,3,4,0,6,5,3,0,1,0,1,1,0,131,131,131,up,1,2.1576507999998285,None,,,,pil_003,001,0.5,1.0,2023-03-23_12h17.41.877,stress,2023.1.0,59.96857646565681,
3,5,2,4,1,0,4,0,6,3,5,6,0,0,1,1,0,132,132,132,up,1,1.8627677000004041,None,,,,pil_003,001,0.5,1.0,2023-03-23_12h17.41.877,stress,2023.1.0,59.96857646565681,
4,5,2,0,3,1,4,3,6,6,0,5,0,0,0,1,0,133,133,133,left,1,2.0119522999993933,None,,,,pil_003,001,0.5,1.0,2023-03-23_12h17.41.877,stress,2023.1.0,59.96857646565681,
0,4,2,5,3,1,4,3,3,6,0,6,0,1,1,1,0,134,134,134,up,1,2.729522800000268,None,,,,pil_003,001,0.5,1.0,2023-03-23_12h17.41.877,stress,2023.1.0,59.96857646565681,
0,1,2,5,3,4,4,5,3,3,5,6,0,0,0,1,0,135,135,135,left,1,0.8087140000006912,None,,,,pil_003,001,0.5,1.0,2023-03-23_12h17.41.877,stress,2023.1.0,59.96857646565681,
2,5,1,4,0,3,4,6,5,5,3,3,0,1,0,1,0,136,136,136,left,1,1.6204379999999219,None,,,,pil_003,001,0.5,1.0,2023-03-23_12h17.41.877,stress,2023.1.0,59.96857646565681,
2,0,1,5,3,4,4,6,5,0,0,3,1,0,1,1,0,137,137,137,left,0,2.706699800000024,None,,,,pil_003,001,0.5,1.0,2023-03-23_12h17.41.877,stress,2023.1.0,59.96857646565681,
4,3,2,1,0,5,4,6,5,5,3,6,1,0,1,1,0,138,138,138,up,1,3.194692500000201,None,,,,pil_003,001,0.5,1.0,2023-03-23_12h17.41.877,stress,2023.1.0,59.96857646565681,
0,4,5,1,2,3,4,3,3,0,6,5,0,1,1,1,0,139,139,139,up,1,3.138563000000431,None,,,,pil_003,001,0.5,1.0,2023-03-23_12h17.41.877,stress,2023.1.0,59.96857646565681,
2,3,0,4,5,1,4,5,0,0,3,6,1,1,0,1,0,140,140,140,left,1,1.1901086000007126,None,,,,pil_003,001,0.5,1.0,2023-03-23_12h17.41.877,stress,2023.1.0,59.96857646565681,
0,3,1,4,5,2,4,5,0,0,5,3,0,1,1,1,0,141,141,141,up,1,2.1480553000001237,None,,,,pil_003,001,0.5,1.0,2023-03-23_12h17.41.877,stress,2023.1.0,59.96857646565681,
5,1,2,0,3,4,4,5,0,3,0,3,1,1,0,1,0,142,142,142,left,1,2.1586152999998376,None,,,,pil_003,001,0.5,1.0,2023-03-23_12h17.41.877,stress,2023.1.0,59.96857646565681,
2,1,3,0,5,4,4,3,5,0,0,3,1,1,0,1,0,143,143,143,left,1,1.3102853999998842,None,,,,pil_003,001,0.5,1.0,2023-03-23_12h17.41.877,stress,2023.1.0,59.96857646565681,
0,1,3,4,2,5,4,6,5,0,3,6,0,0,1,1,0,144,144,144,up,1,1.4634105999994063,None,,,,pil_003,001,0.5,1.0,2023-03-23_12h17.41.877,stress,2023.1.0,59.96857646565681,
2,3,4,5,0,1,4,3,6,0,5,3,0,0,0,1,0,145,145,145,left,1,1.2213029000004099,None,,,,pil_003,001,0.5,1.0,2023-03-23_12h17.41.877,stress,2023.1.0,59.96857646565681,
4,2,0,5,1,3,4,6,3,5,0,6,1,0,0,1,0,146,146,146,left,1,1.7220578999995269,None,,,,pil_003,001,0.5,1.0,2023-03-23_12h17.41.877,stress,2023.1.0,59.96857646565681,
3,4,0,2,5,1,4,5,6,3,6,5,0,0,1,1,0,147,147,147,up,1,1.6347766999997475,None,,,,pil_003,001,0.5,1.0,2023-03-23_12h17.41.877,stress,2023.1.0,59.96857646565681,
1,4,2,3,5,0,4,5,5,0,6,0,1,1,0,1,0,148,148,148,left,1,2.3681273000001966,None,,,,pil_003,001,0.5,1.0,2023-03-23_12h17.41.877,stress,2023.1.0,59.96857646565681,
5,4,0,1,3,2,4,6,0,3,5,5,0,1,1,1,0,149,149,149,up,1,1.64190680000047,None,,,,pil_003,001,0.5,1.0,2023-03-23_12h17.41.877,stress,2023.1.0,59.96857646565681,
2,5,3,4,0,1,4,0,3,6,6,3,1,1,0,1,0,150,150,150,left,1,1.235648900000342,None,,,,pil_003,001,0.5,1.0,2023-03-23_12h17.41.877,stress,2023.1.0,59.96857646565681,
4,5,0,1,3,2,4,6,5,5,0,6,0,1,1,1,0,151,151,151,up,1,1.7754261000000042,None,,,,pil_003,001,0.5,1.0,2023-03-23_12h17.41.877,stress,2023.1.0,59.96857646565681,
5,4,1,3,2,0,4,5,0,3,5,6,0,1,0,1,0,152,152,152,left,1,1.6650595000000976,None,,,,pil_003,001,0.5,1.0,2023-03-23_12h17.41.877,stress,2023.1.0,59.96857646565681,
3,2,5,1,4,0,4,6,5,0,3,6,0,1,0,1,0,153,153,153,left,1,1.1367006000000401,None,,,,pil_003,001,0.5,1.0,2023-03-23_12h17.41.877,stress,2023.1.0,59.96857646565681,
2,1,5,4,3,0,4,0,3,6,5,6,0,0,1,1,0,154,154,154,up,1,2.933364600000459,None,,,,pil_003,001,0.5,1.0,2023-03-23_12h17.41.877,stress,2023.1.0,59.96857646565681,
0,1,4,3,5,2,4,6,0,0,3,6,1,0,0,1,0,155,155,155,left,1,1.2268184000004112,None,,,,pil_003,001,0.5,1.0,2023-03-23_12h17.41.877,stress,2023.1.0,59.96857646565681,
0,1,3,2,4,5,4,3,3,0,0,6,1,0,0,1,0,156,156,156,left,1,0.9278696000001219,None,,,,pil_003,001,0.5,1.0,2023-03-23_12h17.41.877,stress,2023.1.0,59.96857646565681,
4,1,3,0,2,5,4,3,0,5,3,6,1,0,0,1,0,157,157,157,left,1,1.144597900000008,None,,,,pil_003,001,0.5,1.0,2023-03-23_12h17.41.877,stress,2023.1.0,59.96857646565681,
4,1,5,2,0,3,4,0,6,3,5,5,0,0,1,1,0,158,158,158,up,1,1.1604389999993145,None,,,,pil_003,001,0.5,1.0,2023-03-23_12h17.41.877,stress,2023.1.0,59.96857646565681,
5,4,3,0,1,2,4,6,0,3,0,5,1,1,0,1,0,159,159,159,left,1,1.2283246999995754,space,2.5664855000004536,,,pil_003,001,0.5,1.0,2023-03-23_12h17.41.877,stress,2023.1.0,59.96857646565681,
1,4,5,3,0,2,4,0,5,5,6,3,1,1,0,1,0,160,160,160,left,1,0.9957255999997869,None,,,,pil_003,001,0.5,1.0,2023-03-23_12h17.41.877,stress,2023.1.0,59.96857646565681,
3,5,0,4,1,2,4,3,5,0,0,6,0,1,0,1,0,161,161,161,left,1,0.884601599999769,None,,,,pil_003,001,0.5,1.0,2023-03-23_12h17.41.877,stress,2023.1.0,59.96857646565681,
0,3,5,4,1,2,4,0,3,5,6,6,0,1,1,1,0,162,162,162,up,1,1.6783468000003268,None,,,,pil_003,001,0.5,1.0,2023-03-23_12h17.41.877,stress,2023.1.0,59.96857646565681,
2,0,5,1,4,3,4,5,6,0,0,5,1,1,0,1,0,163,163,163,left,1,0.991161099999772,None,,,,pil_003,001,0.5,1.0,2023-03-23_12h17.41.877,stress,2023.1.0,59.96857646565681,
4,3,0,1,5,2,4,6,6,5,0,3,0,1,1,1,0,164,164,164,up,1,1.4891940999996223,None,,,,pil_003,001,0.5,1.0,2023-03-23_12h17.41.877,stress,2023.1.0,59.96857646565681,
2,0,1,4,5,3,4,0,5,0,5,6,0,1,0,1,0,165,165,165,left,1,0.7752516000000469,None,,,,pil_003,001,0.5,1.0,2023-03-23_12h17.41.877,stress,2023.1.0,59.96857646565681,
2,1,0,3,5,4,4,3,5,6,0,6,1,1,0,1,0,166,166,166,left,1,0.5572688000002017,None,,,,pil_003,001,0.5,1.0,2023-03-23_12h17.41.877,stress,2023.1.0,59.96857646565681,
3,1,2,4,0,5,4,5,0,0,3,5,0,0,0,1,0,167,167,167,left,1,1.5132024000004094,None,,,,pil_003,001,0.5,1.0,2023-03-23_12h17.41.877,stress,2023.1.0,59.96857646565681,
0,3,4,1,5,2,4,0,5,6,3,5,1,1,1,1,0,168,168,168,up,1,1.1194488000001002,None,,,,pil_003,001,0.5,1.0,2023-03-23_12h17.41.877,stress,2023.1.0,59.96857646565681,
0,3,4,1,5,2,4,5,0,0,6,3,0,0,1,1,0,169,169,169,up,1,1.6023199999999633,None,,,,pil_003,001,0.5,1.0,2023-03-23_12h17.41.877,stress,2023.1.0,59.96857646565681,
4,5,0,1,2,3,4,3,3,5,6,0,1,1,0,1,0,170,170,170,left,1,1.2894796999999016,None,,,,pil_003,001,0.5,1.0,2023-03-23_12h17.41.877,stress,2023.1.0,59.96857646565681,
5,2,0,3,1,4,4,6,0,5,5,0,1,0,1,1,0,171,171,171,up,1,2.2642501999998785,None,,,,pil_003,001,0.5,1.0,2023-03-23_12h17.41.877,stress,2023.1.0,59.96857646565681,
1,4,5,2,3,0,4,6,3,6,5,0,1,0,1,1,0,172,172,172,up,1,1.084015299999919,None,,,,pil_003,001,0.5,1.0,2023-03-23_12h17.41.877,stress,2023.1.0,59.96857646565681,
4,3,1,5,2,0,4,3,6,0,5,5,0,1,0,1,0,173,173,173,left,1,1.862252200000512,None,,,,pil_003,001,0.5,1.0,2023-03-23_12h17.41.877,stress,2023.1.0,59.96857646565681,
5,3,2,4,1,0,4,6,0,3,0,5,1,0,1,1,0,174,174,174,up,1,1.8986080000004222,None,,,,pil_003,001,0.5,1.0,2023-03-23_12h17.41.877,stress,2023.1.0,59.96857646565681,
5,0,2,4,1,3,4,6,3,6,0,5,1,0,1,1,0,175,175,175,up,1,1.7536423000001378,None,,,,pil_003,001,0.5,1.0,2023-03-23_12h17.41.877,stress,2023.1.0,59.96857646565681,
0,1,5,4,3,2,4,5,6,6,5,0,1,0,1,1,0,176,176,176,up,1,2.1729937000000064,None,,,,pil_003,001,0.5,1.0,2023-03-23_12h17.41.877,stress,2023.1.0,59.96857646565681,
2,4,1,5,0,3,4,3,3,0,6,5,0,0,1,1,0,177,177,177,up,1,0.8798498000005566,None,,,,pil_003,001,0.5,1.0,2023-03-23_12h17.41.877,stress,2023.1.0,59.96857646565681,
3,2,5,1,0,4,4,6,3,5,6,0,0,1,1,1,0,178,178,178,up,1,1.0367801000002146,None,,,,pil_003,001,0.5,1.0,2023-03-23_12h17.41.877,stress,2023.1.0,59.96857646565681,
1,2,5,0,3,4,4,0,6,0,3,6,1,1,0,1,0,179,179,179,left,1,1.3257352000000537,None,,,,pil_003,001,0.5,1.0,2023-03-23_12h17.41.877,stress,2023.1.0,59.96857646565681,
1,0,2,5,3,4,4,3,5,6,6,0,0,1,0,1,0,180,180,180,left,1,2.1471151999994618,None,,,,pil_003,001,0.5,1.0,2023-03-23_12h17.41.877,stress,2023.1.0,59.96857646565681,
2,0,5,3,1,4,4,5,0,6,3,0,1,1,0,1,0,181,181,181,left,1,0.6264511999997922,None,,,,pil_003,001,0.5,1.0,2023-03-23_12h17.41.877,stress,2023.1.0,59.96857646565681,
2,4,3,0,5,1,4,0,0,6,3,5,1,1,1,1,0,182,182,182,up,1,0.7739705999993021,None,,,,pil_003,001,0.5,1.0,2023-03-23_12h17.41.877,stress,2023.1.0,59.96857646565681,
5,2,1,0,4,3,4,0,6,5,3,3,1,1,0,1,0,183,183,183,left,1,1.7770259999997506,None,,,,pil_003,001,0.5,1.0,2023-03-23_12h17.41.877,stress,2023.1.0,59.96857646565681,
1,2,4,5,0,3,4,6,5,3,6,0,1,0,0,1,0,184,184,184,up,0,0.940925399999287,None,,,,pil_003,001,0.5,1.0,2023-03-23_12h17.41.877,stress,2023.1.0,59.96857646565681,
3,5,2,1,0,4,4,3,6,0,6,0,1,0,1,1,0,185,185,185,up,1,1.4780785000002652,None,,,,pil_003,001,0.5,1.0,2023-03-23_12h17.41.877,stress,2023.1.0,59.96857646565681,
2,1,3,4,5,0,4,3,6,3,0,6,1,0,0,1,0,186,186,186,left,1,0.979503499999737,None,,,,pil_003,001,0.5,1.0,2023-03-23_12h17.41.877,stress,2023.1.0,59.96857646565681,
4,5,3,0,1,2,4,6,5,6,3,3,1,1,0,1,0,187,187,187,left,1,1.4351317000000563,None,,,,pil_003,001,0.5,1.0,2023-03-23_12h17.41.877,stress,2023.1.0,59.96857646565681,
4,3,0,1,5,2,4,6,3,5,0,6,0,1,1,1,0,188,188,188,up,1,1.63803149999967,None,,,,pil_003,001,0.5,1.0,2023-03-23_12h17.41.877,stress,2023.1.0,59.96857646565681,
2,1,4,0,3,5,4,5,0,5,3,3,0,1,1,1,0,189,189,189,up,1,0.6703637000000526,None,,,,pil_003,001,0.5,1.0,2023-03-23_12h17.41.877,stress,2023.1.0,59.96857646565681,
5,2,1,0,3,4,4,0,3,6,3,0,1,1,1,1,0,190,190,190,up,1,1.1252301000004081,None,,,,pil_003,001,0.5,1.0,2023-03-23_12h17.41.877,stress,2023.1.0,59.96857646565681,
2,0,4,1,3,5,4,5,0,0,5,3,1,0,1,1,0,191,191,191,up,1,0.6743481000003158,None,,,,pil_003,001,0.5,1.0,2023-03-23_12h17.41.877,stress,2023.1.0,59.96857646565681,
3,2,0,1,4,5,4,6,5,3,6,3,0,1,0,1,0,192,192,192,left,1,0.7840976999996201,None,,,,pil_003,001,0.5,1.0,2023-03-23_12h17.41.877,stress,2023.1.0,59.96857646565681,
5,3,0,2,4,1,4,0,5,3,6,5,0,1,1,1,0,193,193,193,up,1,1.1572124000003896,None,,,,pil_003,001,0.5,1.0,2023-03-23_12h17.41.877,stress,2023.1.0,59.96857646565681,
4,1,0,5,2,3,4,5,6,0,5,0,0,1,1,1,0,194,194,194,up,1,1.21190469999965,None,,,,pil_003,001,0.5,1.0,2023-03-23_12h17.41.877,stress,2023.1.0,59.96857646565681,
3,1,4,5,2,0,4,6,0,3,0,3,0,0,1,1,0,195,195,195,up,1,3.02069819999997,None,,,,pil_003,001,0.5,1.0,2023-03-23_12h17.41.877,stress,2023.1.0,59.96857646565681,
5,2,4,1,3,0,4,5,3,5,0,3,0,1,1,1,0,196,196,196,up,1,1.6768160000001444,None,,,,pil_003,001,0.5,1.0,2023-03-23_12h17.41.877,stress,2023.1.0,59.96857646565681,
0,5,1,2,4,3,4,5,0,3,6,5,1,1,0,1,0,197,197,197,left,1,0.9652138000001287,None,,,,pil_003,001,0.5,1.0,2023-03-23_12h17.41.877,stress,2023.1.0,59.96857646565681,
0,5,3,1,2,4,4,0,3,6,5,6,0,1,0,1,0,198,198,198,left,1,2.312884599999961,None,,,,pil_003,001,0.5,1.0,2023-03-23_12h17.41.877,stress,2023.1.0,59.96857646565681,
4,3,2,0,1,5,4,5,6,0,0,3,0,0,1,1,0,199,199,199,up,1,1.625922599999285,space,3.8885280999993483,,,pil_003,001,0.5,1.0,2023-03-23_12h17.41.877,stress,2023.1.0,59.96857646565681,
3,1,5,0,2,4,4,5,3,0,6,0,1,0,1,1,0,200,200,200,up,1,1.54434399999991,None,,,,pil_003,001,0.5,1.0,2023-03-23_12h17.41.877,stress,2023.1.0,59.96857646565681,
3,1,4,0,5,2,4,6,5,0,3,0,0,1,0,1,0,201,201,201,left,1,1.3623486000005869,None,,,,pil_003,001,0.5,1.0,2023-03-23_12h17.41.877,stress,2023.1.0,59.96857646565681,
5,0,4,2,3,1,4,0,0,6,5,5,0,0,1,1,0,202,202,202,up,1,1.7498751000002812,None,,,,pil_003,001,0.5,1.0,2023-03-23_12h17.41.877,stress,2023.1.0,59.96857646565681,
0,2,1,3,5,4,4,5,0,6,3,3,0,0,1,1,0,203,203,203,up,1,0.9209575000004406,None,,,,pil_003,001,0.5,1.0,2023-03-23_12h17.41.877,stress,2023.1.0,59.96857646565681,
1,4,0,5,3,2,4,0,0,6,3,5,1,0,0,1,0,204,204,204,left,1,0.6776311999992686,None,,,,pil_003,001,0.5,1.0,2023-03-23_12h17.41.877,stress,2023.1.0,59.96857646565681,
3,5,4,1,0,2,4,3,5,6,5,3,1,1,0,1,0,205,205,205,left,1,1.6566690999998173,None,,,,pil_003,001,0.5,1.0,2023-03-23_12h17.41.877,stress,2023.1.0,59.96857646565681,
2,1,0,4,3,5,4,6,3,0,5,5,0,1,1,1,0,206,206,206,up,1,0.700110499999937,None,,,,pil_003,001,0.5,1.0,2023-03-23_12h17.41.877,stress,2023.1.0,59.96857646565681,
1,2,3,5,4,0,4,5,3,5,3,0,0,0,0,1,0,207,207,207,left,1,2.0507446000001437,None,,,,pil_003,001,0.5,1.0,2023-03-23_12h17.41.877,stress,2023.1.0,59.96857646565681,
2,1,3,4,0,5,4,3,0,5,0,6,1,1,0,1,0,208,208,208,left,1,0.9298156999993807,None,,,,pil_003,001,0.5,1.0,2023-03-23_12h17.41.877,stress,2023.1.0,59.96857646565681,
5,0,2,1,3,4,4,3,5,3,0,5,0,1,0,1,0,209,209,209,left,1,1.1445505000001504,None,,,,pil_003,001,0.5,1.0,2023-03-23_12h17.41.877,stress,2023.1.0,59.96857646565681,
3,4,2,0,1,5,4,3,5,6,5,6,1,0,1,1,0,210,210,210,up,1,1.2187669000004462,None,,,,pil_003,001,0.5,1.0,2023-03-23_12h17.41.877,stress,2023.1.0,59.96857646565681,
2,4,1,5,3,0,4,6,6,5,3,3,0,1,1,1,0,211,211,211,up,1,2.650697900000523,None,,,,pil_003,001,0.5,1.0,2023-03-23_12h17.41.877,stress,2023.1.0,59.96857646565681,
1,0,4,5,3,2,4,5,6,0,0,3,0,1,0,1,0,212,212,212,left,1,2.28362449999986,None,,,,pil_003,001,0.5,1.0,2023-03-23_12h17.41.877,stress,2023.1.0,59.96857646565681,
2,5,3,0,4,1,4,0,6,3,5,5,1,1,1,1,0,213,213,213,up,1,2.402942699999585,None,,,,pil_003,001,0.5,1.0,2023-03-23_12h17.41.877,stress,2023.1.0,59.96857646565681,
5,4,2,0,1,3,4,0,6,0,5,6,1,1,0,1,0,214,214,214,left,1,1.9074435000002268,None,,,,pil_003,001,0.5,1.0,2023-03-23_12h17.41.877,stress,2023.1.0,59.96857646565681,
1,2,4,3,5,0,4,0,6,0,3,5,0,1,1,1,0,215,215,215,up,1,1.7548842000005607,None,,,,pil_003,001,0.5,1.0,2023-03-23_12h17.41.877,stress,2023.1.0,59.96857646565681,
5,0,1,4,2,3,4,6,0,5,3,0,1,1,0,1,0,216,216,216,left,1,1.3414505000000645,None,,,,pil_003,001,0.5,1.0,2023-03-23_12h17.41.877,stress,2023.1.0,59.96857646565681,
3,4,1,0,5,2,4,0,6,3,0,5,1,0,0,1,0,217,217,217,left,1,1.4103101000000606,None,,,,pil_003,001,0.5,1.0,2023-03-23_12h17.41.877,stress,2023.1.0,59.96857646565681,
0,1,3,2,5,4,4,5,3,6,0,6,1,0,1,1,0,218,218,218,up,1,1.369513000000552,None,,,,pil_003,001,0.5,1.0,2023-03-23_12h17.41.877,stress,2023.1.0,59.96857646565681,
5,0,4,1,2,3,4,5,5,3,3,6,0,1,0,1,0,219,219,219,left,1,1.3710345999998026,None,,,,pil_003,001,0.5,1.0,2023-03-23_12h17.41.877,stress,2023.1.0,59.96857646565681,
5,0,3,4,2,1,4,3,6,0,0,5,1,0,0,1,0,220,220,220,left,1,1.3064423999994688,None,,,,pil_003,001,0.5,1.0,2023-03-23_12h17.41.877,stress,2023.1.0,59.96857646565681,
2,1,4,0,3,5,4,0,3,5,6,0,0,1,0,1,0,221,221,221,left,1,0.6954587000000174,None,,,,pil_003,001,0.5,1.0,2023-03-23_12h17.41.877,stress,2023.1.0,59.96857646565681,
3,0,5,1,2,4,4,6,0,0,3,5,0,1,0,1,0,222,222,222,left,1,0.8246109000001525,None,,,,pil_003,001,0.5,1.0,2023-03-23_12h17.41.877,stress,2023.1.0,59.96857646565681,
2,5,0,3,4,1,4,6,0,6,0,3,1,1,0,1,0,223,223,223,left,1,0.7506577000003745,None,,,,pil_003,001,0.5,1.0,2023-03-23_12h17.41.877,stress,2023.1.0,59.96857646565681,
5,2,0,1,4,3,4,6,5,3,0,0,0,0,0,1,0,224,224,224,left,1,1.339540200000556,None,,,,pil_003,001,0.5,1.0,2023-03-23_12h17.41.877,stress,2023.1.0,59.96857646565681,
0,4,1,5,3,2,4,6,5,0,0,3,1,1,1,1,0,225,225,225,left,0,1.3776645999996617,None,,,,pil_003,001,0.5,1.0,2023-03-23_12h17.41.877,stress,2023.1.0,59.96857646565681,
3,5,0,2,1,4,4,5,3,5,0,3,1,0,1,1,0,226,226,226,up,1,1.3378744000001461,None,,,,pil_003,001,0.5,1.0,2023-03-23_12h17.41.877,stress,2023.1.0,59.96857646565681,
0,3,1,5,4,2,4,6,0,0,6,5,1,0,0,1,0,227,227,227,left,1,1.012579000000187,None,,,,pil_003,001,0.5,1.0,2023-03-23_12h17.41.877,stress,2023.1.0,59.96857646565681,
5,2,1,0,3,4,4,0,5,6,0,3,1,0,0,1,0,228,228,228,left,1,1.0742027999995116,None,,,,pil_003,001,0.5,1.0,2023-03-23_12h17.41.877,stress,2023.1.0,59.96857646565681,
2,3,0,4,5,1,4,6,5,3,3,0,0,1,0,1,0,229,229,229,left,1,0.8825391999998828,None,,,,pil_003,001,0.5,1.0,2023-03-23_12h17.41.877,stress,2023.1.0,59.96857646565681,
1,4,5,3,0,2,4,0,3,5,3,5,0,1,1,1,0,230,230,230,up,1,1.0925141999996413,None,,,,pil_003,001,0.5,1.0,2023-03-23_12h17.41.877,stress,2023.1.0,59.96857646565681,
2,1,5,3,0,4,4,5,5,0,6,6,1,1,1,1,0,231,231,231,up,1,0.8320863000008103,None,,,,pil_003,001,0.5,1.0,2023-03-23_12h17.41.877,stress,2023.1.0,59.96857646565681,
2,5,1,4,3,0,4,3,0,5,6,3,0,1,0,1,0,232,232,232,left,1,0.6549982999995336,None,,,,pil_003,001,0.5,1.0,2023-03-23_12h17.41.877,stress,2023.1.0,59.96857646565681,
5,1,0,4,3,2,4,6,6,0,3,0,1,0,0,1,0,233,233,233,left,1,1.2310506000003443,None,,,,pil_003,001,0.5,1.0,2023-03-23_12h17.41.877,stress,2023.1.0,59.96857646565681,
2,1,4,5,3,0,4,5,5,6,0,3,1,1,0,1,0,234,234,234,left,1,0.7929885000003196,None,,,,pil_003,001,0.5,1.0,2023-03-23_12h17.41.877,stress,2023.1.0,59.96857646565681,
0,2,3,5,4,1,4,3,5,0,0,3,0,0,0,1,0,235,235,235,left,1,1.3058526999993774,None,,,,pil_003,001,0.5,1.0,2023-03-23_12h17.41.877,stress,2023.1.0,59.96857646565681,
0,1,4,2,5,3,4,6,5,0,6,0,1,1,1,1,0,236,236,236,up,1,2.634953900000255,None,,,,pil_003,001,0.5,1.0,2023-03-23_12h17.41.877,stress,2023.1.0,59.96857646565681,
0,2,5,1,3,4,4,6,5,3,5,3,0,1,1,1,0,237,237,237,up,1,2.8447478999996747,None,,,,pil_003,001,0.5,1.0,2023-03-23_12h17.41.877,stress,2023.1.0,59.96857646565681,
0,5,3,2,1,4,4,5,0,3,0,5,0,1,1,1,0,238,238,238,up,1,1.7342364000005546,None,,,,pil_003,001,0.5,1.0,2023-03-23_12h17.41.877,stress,2023.1.0,59.96857646565681,
3,1,0,4,5,2,4,3,0,6,3,5,0,0,0,1,0,239,239,239,left,1,1.1458401999998387,space,2.151372399999673,,,pil_003,001,0.5,1.0,2023-03-23_12h17.41.877,stress,2023.1.0,59.96857646565681,
5,1,0,4,2,3,4,3,5,6,0,6,1,1,0,1,0,240,240,240,left,1,1.1430642999994234,None,,,,pil_003,001,0.5,1.0,2023-03-23_12h17.41.877,stress,2023.1.0,59.96857646565681,
1,4,2,5,0,3,4,5,6,0,5,0,1,0,0,1,0,241,241,241,left,1,0.9254866999999649,None,,,,pil_003,001,0.5,1.0,2023-03-23_12h17.41.877,stress,2023.1.0,59.96857646565681,
3,1,5,2,0,4,4,6,6,3,5,0,0,0,1,1,0,242,242,242,up,1,1.9564590999998472,None,,,,pil_003,001,0.5,1.0,2023-03-23_12h17.41.877,stress,2023.1.0,59.96857646565681,
2,0,1,3,4,5,4,6,5,0,3,0,1,0,1,1,0,243,243,243,up,1,0.9433768999997483,None,,,,pil_003,001,0.5,1.0,2023-03-23_12h17.41.877,stress,2023.1.0,59.96857646565681,
4,1,3,2,0,5,4,0,6,5,3,3,0,0,1,1,0,244,244,244,up,1,1.3091897000003883,None,,,,pil_003,001,0.5,1.0,2023-03-23_12h17.41.877,stress,2023.1.0,59.96857646565681,
0,2,5,1,4,3,4,6,5,0,3,3,1,0,0,1,0,245,245,245,left,1,1.146011499999986,None,,,,pil_003,001,0.5,1.0,2023-03-23_12h17.41.877,stress,2023.1.0,59.96857646565681,
0,5,1,3,2,4,4,6,5,0,6,3,1,0,1,1,0,246,246,246,up,1,0.9892264000000068,None,,,,pil_003,001,0.5,1.0,2023-03-23_12h17.41.877,stress,2023.1.0,59.96857646565681,
2,0,5,4,3,1,4,5,6,3,0,6,1,0,0,1,0,247,247,247,left,1,0.7049164000000019,None,,,,pil_003,001,0.5,1.0,2023-03-23_12h17.41.877,stress,2023.1.0,59.96857646565681,
1,5,0,3,2,4,4,6,6,0,3,0,0,0,1,1,0,248,248,248,up,1,2.0608628999998473,None,,,,pil_003,001,0.5,1.0,2023-03-23_12h17.41.877,stress,2023.1.0,59.96857646565681,
1,4,2,3,5,0,4,3,3,5,5,0,1,0,0,1,0,249,249,249,left,1,0.6291160000000673,None,,,,pil_003,001,0.5,1.0,2023-03-23_12h17.41.877,stress,2023.1.0,59.96857646565681,
3,2,0,4,1,5,4,0,3,5,0,5,1,1,1,1,0,250,250,250,up,1,1.8251485000000685,None,,,,pil_003,001,0.5,1.0,2023-03-23_12h17.41.877,stress,2023.1.0,59.96857646565681,
0,2,3,5,4,1,4,0,3,6,3,0,1,0,1,1,0,251,251,251,up,1,1.1956465000002936,None,,,,pil_003,001,0.5,1.0,2023-03-23_12h17.41.877,stress,2023.1.0,59.96857646565681,
4,2,1,5,3,0,4,6,0,5,5,3,1,0,0,1,0,252,252,252,left,1,2.480282200000147,None,,,,pil_003,001,0.5,1.0,2023-03-23_12h17.41.877,stress,2023.1.0,59.96857646565681,
2,3,0,4,1,5,4,6,0,5,5,0,0,0,1,1,0,253,253,253,up,1,0.8224536000006992,None,,,,pil_003,001,0.5,1.0,2023-03-23_12h17.41.877,stress,2023.1.0,59.96857646565681,
4,3,2,5,1,0,4,6,3,5,6,0,0,1,0,1,0,254,254,254,left,1,1.3724066000004314,None,,,,pil_003,001,0.5,1.0,2023-03-23_12h17.41.877,stress,2023.1.0,59.96857646565681,
1,3,2,0,5,4,4,5,6,5,3,3,1,0,1,1,0,255,255,255,up,1,2.4673750000001746,None,,,,pil_003,001,0.5,1.0,2023-03-23_12h17.41.877,stress,2023.1.0,59.96857646565681,
2,1,3,5,0,4,4,5,0,3,5,0,1,0,0,1,0,256,256,256,left,1,2.029156000000512,None,,,,pil_003,001,0.5,1.0,2023-03-23_12h17.41.877,stress,2023.1.0,59.96857646565681,
3,5,0,2,4,1,4,6,0,0,3,3,1,1,0,1,0,257,257,257,left,1,1.1030954999996538,None,,,,pil_003,001,0.5,1.0,2023-03-23_12h17.41.877,stress,2023.1.0,59.96857646565681,
4,3,2,5,0,1,4,0,5,0,3,5,1,1,1,1,0,258,258,258,up,1,1.6227415999992445,None,,,,pil_003,001,0.5,1.0,2023-03-23_12h17.41.877,stress,2023.1.0,59.96857646565681,
1,0,5,3,4,2,4,3,5,6,0,0,0,0,0,1,0,259,259,259,left,1,1.9372936999998274,None,,,,pil_003,001,0.5,1.0,2023-03-23_12h17.41.877,stress,2023.1.0,59.96857646565681,
4,0,2,3,1,5,4,5,3,5,6,0,1,1,0,1,0,260,260,260,left,1,1.6364492000002429,None,,,,pil_003,001,0.5,1.0,2023-03-23_12h17.41.877,stress,2023.1.0,59.96857646565681,
0,4,3,5,2,1,4,5,6,5,6,0,1,0,1,1,0,261,261,261,up,1,2.594578299999739,None,,,,pil_003,001,0.5,1.0,2023-03-23_12h17.41.877,stress,2023.1.0,59.96857646565681,
5,0,4,3,1,2,4,3,5,6,6,0,0,0,1,1,0,262,262,262,up,1,1.8714780999998766,None,,,,pil_003,001,0.5,1.0,2023-03-23_12h17.41.877,stress,2023.1.0,59.96857646565681,
4,2,3,0,1,5,4,3,0,6,5,5,0,0,1,1,0,263,263,263,up,1,1.4300992999997106,None,,,,pil_003,001,0.5,1.0,2023-03-23_12h17.41.877,stress,2023.1.0,59.96857646565681,
3,4,2,5,0,1,4,5,0,5,3,3,0,1,1,1,0,264,264,264,up,1,1.4846369999995659,None,,,,pil_003,001,0.5,1.0,2023-03-23_12h17.41.877,stress,2023.1.0,59.96857646565681,
2,4,0,5,3,1,4,0,5,6,3,5,0,1,1,1,0,265,265,265,up,1,0.7906877999994322,None,,,,pil_003,001,0.5,1.0,2023-03-23_12h17.41.877,stress,2023.1.0,59.96857646565681,
2,0,1,5,3,4,4,0,3,0,5,6,1,0,0,1,0,266,266,266,up,0,0.6965561000006346,None,,,,pil_003,001,0.5,1.0,2023-03-23_12h17.41.877,stress,2023.1.0,59.96857646565681,
3,2,4,1,5,0,4,3,0,6,5,5,1,0,0,1,0,267,267,267,left,1,1.025948999999855,None,,,,pil_003,001,0.5,1.0,2023-03-23_12h17.41.877,stress,2023.1.0,59.96857646565681,
3,2,1,0,5,4,4,5,6,6,0,0,0,1,0,1,0,268,268,268,left,1,1.0266214000002947,None,,,,pil_003,001,0.5,1.0,2023-03-23_12h17.41.877,stress,2023.1.0,59.96857646565681,
3,2,0,5,1,4,4,0,5,3,6,6,0,0,1,1,0,269,269,269,up,1,0.7320578999997451,None,,,,pil_003,001,0.5,1.0,2023-03-23_12h17.41.877,stress,2023.1.0,59.96857646565681,
3,2,4,1,5,0,4,6,6,5,3,3,1,0,1,1,0,270,270,270,up,1,0.6711771999998746,None,,,,pil_003,001,0.5,1.0,2023-03-23_12h17.41.877,stress,2023.1.0,59.96857646565681,
2,5,0,1,4,3,4,0,0,5,6,3,1,1,1,1,0,271,271,271,up,1,1.422102200000154,None,,,,pil_003,001,0.5,1.0,2023-03-23_12h17.41.877,stress,2023.1.0,59.96857646565681,
1,2,5,0,3,4,4,5,6,6,5,3,0,0,0,1,0,272,272,272,left,1,3.336345199999414,None,,,,pil_003,001,0.5,1.0,2023-03-23_12h17.41.877,stress,2023.1.0,59.96857646565681,
1,5,0,4,2,3,4,0,3,5,6,0,1,1,0,1,0,273,273,273,left,1,0.7558606000002328,None,,,,pil_003,001,0.5,1.0,2023-03-23_12h17.41.877,stress,2023.1.0,59.96857646565681,
1,2,5,0,3,4,4,5,0,6,6,3,0,1,1,1,0,274,274,274,up,1,0.7026814000000741,None,,,,pil_003,001,0.5,1.0,2023-03-23_12h17.41.877,stress,2023.1.0,59.96857646565681,
5,0,4,1,2,3,4,6,6,5,3,3,1,0,0,1,0,275,275,275,left,1,1.4001116999997976,None,,,,pil_003,001,0.5,1.0,2023-03-23_12h17.41.877,stress,2023.1.0,59.96857646565681,
5,1,3,2,4,0,4,3,6,5,0,0,0,1,0,1,0,276,276,276,left,1,0.4889263999994,None,,,,pil_003,001,0.5,1.0,2023-03-23_12h17.41.877,stress,2023.1.0,59.96857646565681,
3,5,2,4,1,0,4,0,6,5,3,5,0,1,0,1,0,277,277,277,left,1,1.3097816000008606,None,,,,pil_003,001,0.5,1.0,2023-03-23_12h17.41.877,stress,2023.1.0,59.96857646565681,
0,2,3,1,5,4,4,3,0,5,6,5,1,1,0,1,0,278,278,278,left,1,1.2275623999994423,None,,,,pil_003,001,0.5,1.0,2023-03-23_12h17.41.877,stress,2023.1.0,59.96857646565681,
5,0,1,4,3,2,4,3,5,0,6,6,1,0,1,1,0,279,279,279,up,1,1.135656100000233,space,2.205735900000036,,,pil_003,001,0.5,1.0,2023-03-23_12h17.41.877,stress,2023.1.0,59.96857646565681,
2,0,4,1,5,3,4,0,3,3,5,5,1,0,0,1,0,280,280,280,left,1,2.1876775999999154,None,,,,pil_003,001,0.5,1.0,2023-03-23_12h17.41.877,stress,2023.1.0,59.96857646565681,
4,0,3,2,5,1,4,5,6,5,6,3,1,1,0,1,0,281,281,281,left,1,1.5420739999999569,None,,,,pil_003,001,0.5,1.0,2023-03-23_12h17.41.877,stress,2023.1.0,59.96857646565681,
3,5,2,0,1,4,4,0,5,3,3,5,0,0,0,1,0,282,282,282,left,1,1.1113418000004458,None,,,,pil_003,001,0.5,1.0,2023-03-23_12h17.41.877,stress,2023.1.0,59.96857646565681,
4,2,5,3,1,0,4,5,0,6,3,0,1,1,0,1,0,283,283,283,left,1,2.0823073000001386,None,,,,pil_003,001,0.5,1.0,2023-03-23_12h17.41.877,stress,2023.1.0,59.96857646565681,
4,0,1,5,3,2,4,0,6,5,0,6,1,1,0,1,0,284,284,284,left,1,1.4758357999999134,None,,,,pil_003,001,0.5,1.0,2023-03-23_12h17.41.877,stress,2023.1.0,59.96857646565681,
0,4,1,3,2,5,4,3,6,0,6,5,0,1,0,1,0,285,285,285,left,1,1.1845174000000043,None,,,,pil_003,001,0.5,1.0,2023-03-23_12h17.41.877,stress,2023.1.0,59.96857646565681,
0,5,3,1,2,4,4,0,5,5,3,3,0,0,0,1,0,286,286,286,left,1,3.1831991999997626,None,,,,pil_003,001,0.5,1.0,2023-03-23_12h17.41.877,stress,2023.1.0,59.96857646565681,
3,0,5,2,1,4,4,3,0,3,6,6,0,1,0,1,0,287,287,287,left,1,1.6923397999998997,None,,,,pil_003,001,0.5,1.0,2023-03-23_12h17.41.877,stress,2023.1.0,59.96857646565681,
1,5,2,3,4,0,4,6,0,3,0,5,1,1,0,1,0,288,288,288,left,1,1.5972236999996312,None,,,,pil_003,001,0.5,1.0,2023-03-23_12h17.41.877,stress,2023.1.0,59.96857646565681,
2,5,1,4,3,0,4,0,6,3,0,3,0,1,0,1,0,289,289,289,left,1,1.2306985000004715,None,,,,pil_003,001,0.5,1.0,2023-03-23_12h17.41.877,stress,2023.1.0,59.96857646565681,
0,5,4,1,3,2,4,6,3,5,3,0,1,1,1,1,0,290,290,290,up,1,1.9682972000000518,None,,,,pil_003,001,0.5,1.0,2023-03-23_12h17.41.877,stress,2023.1.0,59.96857646565681,
4,2,1,0,5,3,4,5,5,0,0,6,1,1,1,1,0,291,291,291,up,1,1.0394100000003164,None,,,,pil_003,001,0.5,1.0,2023-03-23_12h17.41.877,stress,2023.1.0,59.96857646565681,
3,4,0,2,5,1,4,6,5,6,0,3,0,1,1,1,0,292,292,292,up,1,3.2718419999991966,None,,,,pil_003,001,0.5,1.0,2023-03-23_12h17.41.877,stress,2023.1.0,59.96857646565681,
1,0,5,4,3,2,4,3,5,3,6,0,1,1,1,1,0,293,293,293,up,1,1.0877086000000418,None,,,,pil_003,001,0.5,1.0,2023-03-23_12h17.41.877,stress,2023.1.0,59.96857646565681,
2,3,0,5,4,1,4,6,6,3,5,0,1,0,0,1,0,294,294,294,left,1,2.0210763999994015,None,,,,pil_003,001,0.5,1.0,2023-03-23_12h17.41.877,stress,2023.1.0,59.96857646565681,
2,3,0,4,5,1,4,5,6,0,3,0,1,0,0,1,0,295,295,295,left,1,1.0531668000003265,None,,,,pil_003,001,0.5,1.0,2023-03-23_12h17.41.877,stress,2023.1.0,59.96857646565681,
3,4,2,1,5,0,4,0,3,5,6,3,0,0,1,1,0,296,296,296,up,1,2.830304000000069,None,,,,pil_003,001,0.5,1.0,2023-03-23_12h17.41.877,stress,2023.1.0,59.96857646565681,
0,5,4,2,1,3,4,0,3,3,5,5,0,0,1,1,0,297,297,297,up,1,1.8237092999997913,None,,,,pil_003,001,0.5,1.0,2023-03-23_12h17.41.877,stress,2023.1.0,59.96857646565681,
5,1,0,2,3,4,4,3,3,0,0,6,1,0,1,1,0,298,298,298,up,1,1.7158423000000766,None,,,,pil_003,001,0.5,1.0,2023-03-23_12h17.41.877,stress,2023.1.0,59.96857646565681,
4,2,0,1,5,3,4,3,6,5,6,3,1,0,0,1,0,299,299,299,left,1,1.7398844000008467,None,,,,pil_003,001,0.5,1.0,2023-03-23_12h17.41.877,stress,2023.1.0,59.96857646565681,
3,4,1,5,0,2,4,3,0,5,5,3,1,0,0,1,0,300,300,300,left,1,1.0311726999998427,None,,,,pil_003,001,0.5,1.0,2023-03-23_12h17.41.877,stress,2023.1.0,59.96857646565681,
0,1,2,3,5,4,4,6,0,3,6,3,0,0,0,1,0,301,301,301,left,1,1.8712059999998019,None,,,,pil_003,001,0.5,1.0,2023-03-23_12h17.41.877,stress,2023.1.0,59.96857646565681,
0,5,4,2,1,3,4,5,3,0,6,0,0,0,1,1,0,302,302,302,up,1,1.3581318999995347,None,,,,pil_003,001,0.5,1.0,2023-03-23_12h17.41.877,stress,2023.1.0,59.96857646565681,
3,5,4,1,2,0,4,6,3,6,0,3,0,0,1,1,0,303,303,303,up,1,2.649023500000112,None,,,,pil_003,001,0.5,1.0,2023-03-23_12h17.41.877,stress,2023.1.0,59.96857646565681,
4,2,5,0,3,1,4,6,0,3,3,5,1,1,0,1,0,304,304,304,left,1,2.062072700000499,None,,,,pil_003,001,0.5,1.0,2023-03-23_12h17.41.877,stress,2023.1.0,59.96857646565681,
2,0,1,3,4,5,4,0,6,3,6,5,0,1,1,1,0,305,305,305,up,1,1.4389977000000727,None,,,,pil_003,001,0.5,1.0,2023-03-23_12h17.41.877,stress,2023.1.0,59.96857646565681,
2,4,3,5,1,0,4,3,5,5,3,6,1,1,1,1,0,306,306,306,up,1,0.618020300000353,None,,,,pil_003,001,0.5,1.0,2023-03-23_12h17.41.877,stress,2023.1.0,59.96857646565681,
4,5,1,3,0,2,4,6,0,0,3,5,0,0,0,1,0,307,307,307,left,1,1.6189367999995739,None,,,,pil_003,001,0.5,1.0,2023-03-23_12h17.41.877,stress,2023.1.0,59.96857646565681,
4,5,0,1,2,3,4,0,6,0,3,5,1,1,1,1,0,308,308,308,up,1,1.6604808000001867,None,,,,pil_003,001,0.5,1.0,2023-03-23_12h17.41.877,stress,2023.1.0,59.96857646565681,
1,4,3,0,2,5,4,0,6,3,5,3,1,0,0,1,0,309,309,309,left,1,0.8406497999994826,None,,,,pil_003,001,0.5,1.0,2023-03-23_12h17.41.877,stress,2023.1.0,59.96857646565681,
4,3,0,1,5,2,4,3,0,6,6,5,0,0,0,1,0,310,310,310,left,1,1.4163537000003998,None,,,,pil_003,001,0.5,1.0,2023-03-23_12h17.41.877,stress,2023.1.0,59.96857646565681,
1,3,4,2,5,0,4,6,3,5,0,6,1,1,1,1,0,311,311,311,up,1,0.9621463999992557,None,,,,pil_003,001,0.5,1.0,2023-03-23_12h17.41.877,stress,2023.1.0,59.96857646565681,
4,1,2,0,5,3,4,6,0,3,5,6,0,0,1,1,0,312,312,312,up,1,1.4059220999997706,None,,,,pil_003,001,0.5,1.0,2023-03-23_12h17.41.877,stress,2023.1.0,59.96857646565681,
3,5,0,2,4,1,4,6,3,0,5,5,0,0,0,1,0,313,313,313,left,1,0.8115490000000136,None,,,,pil_003,001,0.5,1.0,2023-03-23_12h17.41.877,stress,2023.1.0,59.96857646565681,
4,2,5,3,0,1,4,0,0,3,5,5,1,0,1,1,0,314,314,314,up,1,1.8029155000003811,None,,,,pil_003,001,0.5,1.0,2023-03-23_12h17.41.877,stress,2023.1.0,59.96857646565681,
3,5,2,0,1,4,4,3,0,6,6,5,0,0,1,1,0,315,315,315,up,1,1.0790168000003177,None,,,,pil_003,001,0.5,1.0,2023-03-23_12h17.41.877,stress,2023.1.0,59.96857646565681,
1,5,0,4,3,2,4,0,3,5,6,6,1,1,1,1,0,316,316,316,up,1,1.8317772000000332,None,,,,pil_003,001,0.5,1.0,2023-03-23_12h17.41.877,stress,2023.1.0,59.96857646565681,
4,5,3,2,1,0,4,6,5,3,0,5,1,1,1,1,0,317,317,317,up,1,1.7900241000006645,None,,,,pil_003,001,0.5,1.0,2023-03-23_12h17.41.877,stress,2023.1.0,59.96857646565681,
4,5,2,3,1,0,4,5,0,6,3,5,0,0,0,1,0,318,318,318,left,1,0.7457484000005934,None,,,,pil_003,001,0.5,1.0,2023-03-23_12h17.41.877,stress,2023.1.0,59.96857646565681,
3,0,1,5,4,2,4,3,5,5,0,3,0,0,1,1,0,319,319,319,up,1,1.973069900000155,space,2.6792066000007253,,,pil_003,001,0.5,1.0,2023-03-23_12h17.41.877,stress,2023.1.0,59.96857646565681,
4,0,5,3,2,1,4,3,3,5,6,6,0,1,1,1,0,320,320,320,up,1,1.3908681000002616,None,,,,pil_003,001,0.5,1.0,2023-03-23_12h17.41.877,stress,2023.1.0,59.96857646565681,
0,1,5,3,4,2,4,5,6,3,3,0,1,0,1,1,0,321,321,321,up,1,1.0316606000005777,None,,,,pil_003,001,0.5,1.0,2023-03-23_12h17.41.877,stress,2023.1.0,59.96857646565681,
1,3,2,5,0,4,4,3,5,0,5,0,0,0,1,1,0,322,322,322,up,1,0.6226610999992772,None,,,,pil_003,001,0.5,1.0,2023-03-23_12h17.41.877,stress,2023.1.0,59.96857646565681,
1,5,2,4,0,3,4,0,6,3,5,5,0,0,0,1,0,323,323,323,left,1,0.8416823000006843,None,,,,pil_003,001,0.5,1.0,2023-03-23_12h17.41.877,stress,2023.1.0,59.96857646565681,
4,5,3,0,1,2,4,5,0,0,3,6,0,1,0,1,0,324,324,324,left,1,0.6157559000002948,None,,,,pil_003,001,0.5,1.0,2023-03-23_12h17.41.877,stress,2023.1.0,59.96857646565681,
4,5,1,0,3,2,4,0,0,6,5,5,1,1,0,1,0,325,325,325,left,1,1.8384858000008535,None,,,,pil_003,001,0.5,1.0,2023-03-23_12h17.41.877,stress,2023.1.0,59.96857646565681,
3,4,0,1,2,5,4,0,3,3,6,5,1,1,1,1,0,326,326,326,up,1,1.5393607999994856,None,,,,pil_003,001,0.5,1.0,2023-03-23_12h17.41.877,stress,2023.1.0,59.96857646565681,
1,5,0,4,3,2,4,6,0,5,3,6,0,0,1,1,0,327,327,327,up,1,0.7964019000000917,None,,,,pil_003,001,0.5,1.0,2023-03-23_12h17.41.877,stress,2023.1.0,59.96857646565681,
5,3,0,2,4,1,4,6,5,3,5,0,0,1,0,1,0,328,328,328,left,1,1.6362900999993144,None,,,,pil_003,001,0.5,1.0,2023-03-23_12h17.41.877,stress,2023.1.0,59.96857646565681,
4,3,1,0,2,5,4,3,6,5,0,3,1,1,1,1,0,329,329,329,up,1,2.455795599999874,None,,,,pil_003,001,0.5,1.0,2023-03-23_12h17.41.877,stress,2023.1.0,59.96857646565681,
2,0,4,5,3,1,4,0,3,5,6,0,1,1,0,1,0,330,330,330,left,1,0.700008899999375,None,,,,pil_003,001,0.5,1.0,2023-03-23_12h17.41.877,stress,2023.1.0,59.96857646565681,
3,1,0,5,4,2,4,6,5,6,3,0,0,1,0,1,0,331,331,331,left,1,1.0330965000002834,None,,,,pil_003,001,0.5,1.0,2023-03-23_12h17.41.877,stress,2023.1.0,59.96857646565681,
3,2,5,1,4,0,4,6,0,3,0,5,0,1,0,1,0,332,332,332,left,1,0.7768600000008519,None,,,,pil_003,001,0.5,1.0,2023-03-23_12h17.41.877,stress,2023.1.0,59.96857646565681,
2,5,3,0,1,4,4,0,5,6,5,3,1,0,1,1,0,333,333,333,up,1,0.8499040999995486,None,,,,pil_003,001,0.5,1.0,2023-03-23_12h17.41.877,stress,2023.1.0,59.96857646565681,
2,3,0,4,5,1,4,6,0,5,0,3,0,0,1,1,0,334,334,334,up,1,0.6908250999995289,None,,,,pil_003,001,0.5,1.0,2023-03-23_12h17.41.877,stress,2023.1.0,59.96857646565681,
0,1,4,2,5,3,4,6,0,6,3,3,1,0,1,1,0,335,335,335,up,1,2.055372400000124,None,,,,pil_003,001,0.5,1.0,2023-03-23_12h17.41.877,stress,2023.1.0,59.96857646565681,
1,5,4,3,0,2,4,3,5,6,0,0,0,0,1,1,0,336,336,336,up,1,0.8052624000001742,None,,,,pil_003,001,0.5,1.0,2023-03-23_12h17.41.877,stress,2023.1.0,59.96857646565681,
5,1,3,4,0,2,4,5,0,3,3,6,0,0,1,1,0,337,337,337,up,1,1.5707862999997815,None,,,,pil_003,001,0.5,1.0,2023-03-23_12h17.41.877,stress,2023.1.0,59.96857646565681,
3,1,5,4,0,2,4,3,0,5,6,5,0,0,0,1,0,338,338,338,left,1,1.0560128999995868,None,,,,pil_003,001,0.5,1.0,2023-03-23_12h17.41.877,stress,2023.1.0,59.96857646565681,
5,0,3,1,4,2,4,6,5,0,5,3,1,0,1,1,0,339,339,339,up,1,2.127849999999853,None,,,,pil_003,001,0.5,1.0,2023-03-23_12h17.41.877,stress,2023.1.0,59.96857646565681,
2,4,0,1,3,5,4,5,3,0,3,0,0,0,0,1,0,340,340,340,left,1,1.0803288999995857,None,,,,pil_003,001,0.5,1.0,2023-03-23_12h17.41.877,stress,2023.1.0,59.96857646565681,
5,4,1,3,0,2,4,6,5,3,5,6,1,0,0,1,0,341,341,341,left,1,1.9771346000006815,None,,,,pil_003,001,0.5,1.0,2023-03-23_12h17.41.877,stress,2023.1.0,59.96857646565681,
3,1,5,2,4,0,4,0,3,3,5,6,0,0,0,1,0,342,342,342,left,1,1.1557863999996698,None,,,,pil_003,001,0.5,1.0,2023-03-23_12h17.41.877,stress,2023.1.0,59.96857646565681,
2,3,4,1,0,5,4,6,5,0,3,6,1,1,1,1,0,343,343,343,up,1,1.1152625999993688,None,,,,pil_003,001,0.5,1.0,2023-03-23_12h17.41.877,stress,2023.1.0,59.96857646565681,
4,5,2,3,1,0,4,6,0,6,5,3,0,1,0,1,0,344,344,344,left,1,1.236658300000272,None,,,,pil_003,001,0.5,1.0,2023-03-23_12h17.41.877,stress,2023.1.0,59.96857646565681,
0,5,2,4,1,3,4,0,5,0,6,6,0,1,1,1,0,345,345,345,up,1,1.9040046000000075,None,,,,pil_003,001,0.5,1.0,2023-03-23_12h17.41.877,stress,2023.1.0,59.96857646565681,
3,2,4,1,5,0,4,6,3,6,5,0,1,0,0,1,0,346,346,346,left,1,1.3348810999996203,None,,,,pil_003,001,0.5,1.0,2023-03-23_12h17.41.877,stress,2023.1.0,59.96857646565681,
3,2,5,4,1,0,4,3,3,0,6,0,1,1,1,1,0,347,347,347,up,1,1.0006980000007388,None,,,,pil_003,001,0.5,1.0,2023-03-23_12h17.41.877,stress,2023.1.0,59.96857646565681,
2,1,5,4,3,0,4,3,0,6,3,6,1,0,1,1,0,348,348,348,up,1,1.077035799999976,None,,,,pil_003,001,0.5,1.0,2023-03-23_12h17.41.877,stress,2023.1.0,59.96857646565681,
5,1,4,3,2,0,4,5,0,6,6,0,1,0,0,1,0,349,349,349,left,1,1.1764328999997815,None,,,,pil_003,001,0.5,1.0,2023-03-23_12h17.41.877,stress,2023.1.0,59.96857646565681,
0,1,2,4,3,5,4,3,5,0,0,3,0,0,0,1,0,350,350,350,left,1,1.1772445999995398,None,,,,pil_003,001,0.5,1.0,2023-03-23_12h17.41.877,stress,2023.1.0,59.96857646565681,
2,3,1,0,4,5,4,0,5,0,6,6,0,0,0,1,0,351,351,351,left,1,0.7298405000001367,None,,,,pil_003,001,0.5,1.0,2023-03-23_12h17.41.877,stress,2023.1.0,59.96857646565681,
0,2,5,1,3,4,4,6,3,0,3,5,1,0,1,1,0,352,352,352,up,1,1.7870782999998482,None,,,,pil_003,001,0.5,1.0,2023-03-23_12h17.41.877,stress,2023.1.0,59.96857646565681,
3,0,5,4,2,1,4,5,3,6,6,5,1,1,0,1,0,353,353,353,left,1,0.842971199999738,None,,,,pil_003,001,0.5,1.0,2023-03-23_12h17.41.877,stress,2023.1.0,59.96857646565681,
0,1,4,2,5,3,4,3,6,3,5,0,1,0,0,1,0,354,354,354,left,1,0.9498479000003499,None,,,,pil_003,001,0.5,1.0,2023-03-23_12h17.41.877,stress,2023.1.0,59.96857646565681,
5,4,0,2,3,1,4,5,0,3,0,5,0,1,1,1,0,355,355,355,up,1,1.092009500000131,None,,,,pil_003,001,0.5,1.0,2023-03-23_12h17.41.877,stress,2023.1.0,59.96857646565681,
1,2,3,4,0,5,4,5,5,6,0,3,0,1,0,1,0,356,356,356,left,1,0.6723314999999275,None,,,,pil_003,001,0.5,1.0,2023-03-23_12h17.41.877,stress,2023.1.0,59.96857646565681,
3,1,5,4,2,0,4,5,0,6,5,6,1,1,0,1,0,357,357,357,left,1,0.8899104000001898,None,,,,pil_003,001,0.5,1.0,2023-03-23_12h17.41.877,stress,2023.1.0,59.96857646565681,
5,2,4,1,3,0,4,3,0,6,5,5,0,0,1,1,0,358,358,358,up,1,2.102793600000041,None,,,,pil_003,001,0.5,1.0,2023-03-23_12h17.41.877,stress,2023.1.0,59.96857646565681,
4,3,2,5,0,1,4,6,3,5,0,5,0,0,0,1,0,359,359,359,left,1,1.0250843000003442,space,2.422784700000193,,,pil_003,001,0.5,1.0,2023-03-23_12h17.41.877,stress,2023.1.0,59.96857646565681,
0,4,3,1,5,2,4,6,3,5,6,3,1,0,1,1,0,360,360,360,up,1,1.2243715999993583,None,,,,pil_003,001,0.5,1.0,2023-03-23_12h17.41.877,stress,2023.1.0,59.96857646565681,
4,1,0,2,3,5,4,5,6,0,0,6,0,1,1,1,0,361,361,361,left,0,1.343445200000133,None,,,,pil_003,001,0.5,1.0,2023-03-23_12h17.41.877,stress,2023.1.0,59.96857646565681,
5,0,4,3,2,1,4,3,6,5,3,6,0,0,0,1,0,362,362,362,left,1,1.8469513999998526,None,,,,pil_003,001,0.5,1.0,2023-03-23_12h17.41.877,stress,2023.1.0,59.96857646565681,
3,1,5,0,2,4,4,6,3,5,0,0,0,0,1,1,0,363,363,363,up,1,1.299551000000065,None,,,,pil_003,001,0.5,1.0,2023-03-23_12h17.41.877,stress,2023.1.0,59.96857646565681,
4,0,2,5,1,3,4,5,3,5,0,0,1,1,1,1,0,364,364,364,left,0,1.4702737000006891,None,,,,pil_003,001,0.5,1.0,2023-03-23_12h17.41.877,stress,2023.1.0,59.96857646565681,
3,1,2,5,4,0,4,3,0,6,6,0,1,1,1,1,0,365,365,365,up,1,1.5962234999997236,None,,,,pil_003,001,0.5,1.0,2023-03-23_12h17.41.877,stress,2023.1.0,59.96857646565681,
3,5,0,4,1,2,4,0,6,0,5,5,0,1,0,1,0,366,366,366,left,1,0.899074500000097,None,,,,pil_003,001,0.5,1.0,2023-03-23_12h17.41.877,stress,2023.1.0,59.96857646565681,
0,1,4,3,2,5,4,5,0,6,6,0,0,1,1,1,0,367,367,367,up,1,1.5146561000001384,None,,,,pil_003,001,0.5,1.0,2023-03-23_12h17.41.877,stress,2023.1.0,59.96857646565681,
3,4,5,2,0,1,4,0,6,5,3,6,0,1,1,1,0,368,368,368,up,1,1.5637041999998473,None,,,,pil_003,001,0.5,1.0,2023-03-23_12h17.41.877,stress,2023.1.0,59.96857646565681,
4,1,3,5,2,0,4,6,5,3,3,5,1,1,1,1,0,369,369,369,up,1,1.464000799999667,None,,,,pil_003,001,0.5,1.0,2023-03-23_12h17.41.877,stress,2023.1.0,59.96857646565681,
0,5,4,1,2,3,4,0,0,3,6,5,0,1,0,1,0,370,370,370,left,1,1.1531567000001814,None,,,,pil_003,001,0.5,1.0,2023-03-23_12h17.41.877,stress,2023.1.0,59.96857646565681,
0,5,4,2,1,3,4,6,5,3,6,0,0,0,0,1,0,371,371,371,left,1,1.109801000000516,None,,,,pil_003,001,0.5,1.0,2023-03-23_12h17.41.877,stress,2023.1.0,59.96857646565681,
3,4,5,1,2,0,4,3,0,5,0,3,0,1,0,1,0,372,372,372,left,1,1.3828963999994812,None,,,,pil_003,001,0.5,1.0,2023-03-23_12h17.41.877,stress,2023.1.0,59.96857646565681,
3,4,1,0,2,5,4,0,3,5,6,0,0,1,1,1,0,373,373,373,up,1,1.8201063000005888,None,,,,pil_003,001,0.5,1.0,2023-03-23_12h17.41.877,stress,2023.1.0,59.96857646565681,
3,4,5,2,1,0,4,5,3,0,3,6,1,0,0,1,0,374,374,374,left,1,0.6929620999999315,None,,,,pil_003,001,0.5,1.0,2023-03-23_12h17.41.877,stress,2023.1.0,59.96857646565681,
4,0,3,2,5,1,4,3,0,5,6,6,1,0,1,1,0,375,375,375,up,1,2.109041600000637,None,,,,pil_003,001,0.5,1.0,2023-03-23_12h17.41.877,stress,2023.1.0,59.96857646565681,
3,4,5,2,0,1,4,0,3,0,5,5,0,0,1,1,0,376,376,376,up,1,1.4938805000001594,None,,,,pil_003,001,0.5,1.0,2023-03-23_12h17.41.877,stress,2023.1.0,59.96857646565681,
2,0,1,5,4,3,4,6,5,0,6,3,0,0,0,1,0,377,377,377,left,1,1.4854285999999775,None,,,,pil_003,001,0.5,1.0,2023-03-23_12h17.41.877,stress,2023.1.0,59.96857646565681,
5,0,4,2,3,1,4,0,5,3,5,6,0,0,0,1,0,378,378,378,left,1,1.268496900000173,None,,,,pil_003,001,0.5,1.0,2023-03-23_12h17.41.877,stress,2023.1.0,59.96857646565681,
0,5,4,3,1,2,4,5,6,5,0,3,1,0,0,1,0,379,379,379,left,1,0.8766677000003256,None,,,,pil_003,001,0.5,1.0,2023-03-23_12h17.41.877,stress,2023.1.0,59.96857646565681,
0,3,2,1,4,5,4,6,6,5,3,3,0,0,0,1,0,380,380,380,left,1,1.094579700000395,None,,,,pil_003,001,0.5,1.0,2023-03-23_12h17.41.877,stress,2023.1.0,59.96857646565681,
0,2,4,3,5,1,4,5,6,6,0,3,1,1,1,1,0,381,381,381,up,1,1.6807400000006965,None,,,,pil_003,001,0.5,1.0,2023-03-23_12h17.41.877,stress,2023.1.0,59.96857646565681,
0,3,2,5,4,1,4,6,5,5,3,0,0,1,0,1,0,382,382,382,left,1,0.8290461999995387,None,,,,pil_003,001,0.5,1.0,2023-03-23_12h17.41.877,stress,2023.1.0,59.96857646565681,
4,5,3,1,0,2,4,0,0,3,5,5,0,0,1,1,0,383,383,383,up,1,1.3374593000007735,None,,,,pil_003,001,0.5,1.0,2023-03-23_12h17.41.877,stress,2023.1.0,59.96857646565681,
3,1,4,5,2,0,4,3,6,3,5,5,1,0,1,1,0,384,384,384,up,1,0.9507039999998597,None,,,,pil_003,001,0.5,1.0,2023-03-23_12h17.41.877,stress,2023.1.0,59.96857646565681,
2,0,4,3,5,1,4,6,5,0,3,6,0,0,1,1,0,385,385,385,up,1,0.7242266000002928,None,,,,pil_003,001,0.5,1.0,2023-03-23_12h17.41.877,stress,2023.1.0,59.96857646565681,
5,2,0,4,1,3,4,0,5,3,5,0,0,0,0,1,0,386,386,386,left,1,1.418874400000277,None,,,,pil_003,001,0.5,1.0,2023-03-23_12h17.41.877,stress,2023.1.0,59.96857646565681,
3,5,1,4,2,0,4,5,3,0,5,3,0,0,1,1,0,387,387,387,up,1,2.4397850000004837,None,,,,pil_003,001,0.5,1.0,2023-03-23_12h17.41.877,stress,2023.1.0,59.96857646565681,
3,2,4,0,5,1,4,5,6,6,3,5,1,1,0,1,0,388,388,388,left,1,0.9091493999994782,None,,,,pil_003,001,0.5,1.0,2023-03-23_12h17.41.877,stress,2023.1.0,59.96857646565681,
3,2,5,1,4,0,4,3,6,6,5,5,1,1,0,1,0,389,389,389,left,1,0.7356329000003825,None,,,,pil_003,001,0.5,1.0,2023-03-23_12h17.41.877,stress,2023.1.0,59.96857646565681,
3,2,1,5,0,4,4,0,5,3,6,0,0,0,0,1,0,390,390,390,left,1,0.5494189000000915,None,,,,pil_003,001,0.5,1.0,2023-03-23_12h17.41.877,stress,2023.1.0,59.96857646565681,
0,3,1,5,2,4,4,0,3,5,6,0,0,0,1,1,0,391,391,391,up,1,1.3375943999999436,None,,,,pil_003,001,0.5,1.0,2023-03-23_12h17.41.877,stress,2023.1.0,59.96857646565681,
0,4,1,3,5,2,4,6,3,5,3,0,1,0,1,1,0,392,392,392,up,1,1.8194125999998505,None,,,,pil_003,001,0.5,1.0,2023-03-23_12h17.41.877,stress,2023.1.0,59.96857646565681,
4,1,2,0,5,3,4,0,5,6,6,3,1,0,0,1,0,393,393,393,left,1,0.7323148000004949,None,,,,pil_003,001,0.5,1.0,2023-03-23_12h17.41.877,stress,2023.1.0,59.96857646565681,
1,2,4,0,5,3,4,0,3,6,5,0,1,1,1,1,0,394,394,394,up,1,1.9308012000001327,None,,,,pil_003,001,0.5,1.0,2023-03-23_12h17.41.877,stress,2023.1.0,59.96857646565681,
5,2,3,0,4,1,4,3,6,0,6,5,1,1,0,1,0,395,395,395,left,1,1.8914534000005006,None,,,,pil_003,001,0.5,1.0,2023-03-23_12h17.41.877,stress,2023.1.0,59.96857646565681,
3,5,4,2,0,1,4,3,0,6,0,6,1,0,1,1,0,396,396,396,up,1,1.8407388000005085,None,,,,pil_003,001,0.5,1.0,2023-03-23_12h17.41.877,stress,2023.1.0,59.96857646565681,
5,1,4,3,2,0,4,6,3,5,6,0,0,1,1,1,0,397,397,397,up,1,1.966494700000112,None,,,,pil_003,001,0.5,1.0,2023-03-23_12h17.41.877,stress,2023.1.0,59.96857646565681,
1,2,0,4,3,5,4,6,5,3,3,5,0,0,0,1,0,398,398,398,left,1,1.3563579000001482,None,,,,pil_003,001,0.5,1.0,2023-03-23_12h17.41.877,stress,2023.1.0,59.96857646565681,
5,4,0,3,1,2,4,0,6,6,5,5,0,1,0,1,0,399,399,399,left,1,1.745006099999955,space,10.305287700000008,,,pil_003,001,0.5,1.0,2023-03-23_12h17.41.877,stress,2023.1.0,59.96857646565681,
,,,,,,,,,,,,,,,,,,,,,,,,,space,1.3156640000006519,pil_003,001,0.5,1.0,2023-03-23_12h17.41.877,stress,2023.1.0,59.96857646565681,
