pos1,pos2,pos3,pos4,pos5,pos6,shape1,shape2,shape3,shape4,shape5,shape6,singleton,target_color,target_orientation,cue_validity,trials.thisRepN,trials.thisTrialN,trials.thisN,trials.thisIndex,search_response.keys,search_response.corr,search_response.rt,key_block.keys,key_block.rt,end_key.keys,end_key.rt,participant,session,distractor_prevalence,validity,date,expName,psychopyVersion,frameRate,
3,5,4,1,2,0,4,0,3,0,6,5,1,1,0,1,0,0,0,0,left,1,5.096048299999893,None,,,,pil_002,001,0.9,1.0,2023-03-22_14h39.54.521,stress,2023.1.0,60.08903993905168,
5,0,4,3,1,2,4,6,3,5,0,6,1,0,0,1,0,1,1,1,left,1,4.603717400001187,None,,,,pil_002,001,0.9,1.0,2023-03-22_14h39.54.521,stress,2023.1.0,60.08903993905168,
2,5,1,3,4,0,4,0,0,5,3,5,1,1,0,1,0,2,2,2,left,1,3.0311509999992268,None,,,,pil_002,001,0.9,1.0,2023-03-22_14h39.54.521,stress,2023.1.0,60.08903993905168,
3,1,4,0,5,2,4,0,3,5,5,6,1,1,1,1,0,3,3,3,up,1,2.3567493999998987,None,,,,pil_002,001,0.9,1.0,2023-03-22_14h39.54.521,stress,2023.1.0,60.08903993905168,
3,1,2,0,5,4,4,0,6,3,5,5,1,1,0,1,0,4,4,4,left,1,1.962353199998688,None,,,,pil_002,001,0.9,1.0,2023-03-22_14h39.54.521,stress,2023.1.0,60.08903993905168,
4,1,3,5,2,0,4,3,3,0,6,5,1,0,0,1,0,5,5,5,left,1,2.3575904999997874,None,,,,pil_002,001,0.9,1.0,2023-03-22_14h39.54.521,stress,2023.1.0,60.08903993905168,
2,3,4,1,0,5,4,6,3,0,5,0,0,0,1,1,0,6,6,6,up,1,1.7204171000012138,None,,,,pil_002,001,0.9,1.0,2023-03-22_14h39.54.521,stress,2023.1.0,60.08903993905168,
4,1,3,2,0,5,4,3,6,6,0,5,1,0,0,1,0,7,7,7,left,1,1.7478922999998758,None,,,,pil_002,001,0.9,1.0,2023-03-22_14h39.54.521,stress,2023.1.0,60.08903993905168,
0,1,2,3,4,5,4,0,5,3,6,6,1,1,0,1,0,8,8,8,left,1,1.4561381000003166,None,,,,pil_002,001,0.9,1.0,2023-03-22_14h39.54.521,stress,2023.1.0,60.08903993905168,
4,3,2,0,5,1,4,0,0,6,3,6,1,1,0,1,0,9,9,9,left,1,1.319342400000096,None,,,,pil_002,001,0.9,1.0,2023-03-22_14h39.54.521,stress,2023.1.0,60.08903993905168,
2,5,0,3,4,1,4,0,6,0,3,3,1,1,0,1,0,10,10,10,left,1,2.8228720999995858,None,,,,pil_002,001,0.9,1.0,2023-03-22_14h39.54.521,stress,2023.1.0,60.08903993905168,
1,5,0,2,3,4,4,3,5,3,6,5,1,0,0,1,0,11,11,11,left,1,1.3710949999986042,None,,,,pil_002,001,0.9,1.0,2023-03-22_14h39.54.521,stress,2023.1.0,60.08903993905168,
1,5,4,0,2,3,4,6,3,3,5,6,1,0,0,1,0,12,12,12,left,1,2.2157837000013387,None,,,,pil_002,001,0.9,1.0,2023-03-22_14h39.54.521,stress,2023.1.0,60.08903993905168,
5,2,1,4,0,3,4,3,5,0,5,3,1,1,0,1,0,13,13,13,left,1,1.1386595999993006,None,,,,pil_002,001,0.9,1.0,2023-03-22_14h39.54.521,stress,2023.1.0,60.08903993905168,
0,3,1,4,2,5,4,3,6,0,5,5,0,0,1,1,0,14,14,14,up,1,1.2084037000004173,None,,,,pil_002,001,0.9,1.0,2023-03-22_14h39.54.521,stress,2023.1.0,60.08903993905168,
0,3,1,2,5,4,4,3,5,0,6,5,1,0,1,1,0,15,15,15,up,1,1.64771600000131,None,,,,pil_002,001,0.9,1.0,2023-03-22_14h39.54.521,stress,2023.1.0,60.08903993905168,
3,4,5,0,2,1,4,3,0,3,5,5,1,1,1,1,0,16,16,16,up,1,1.564747800000987,None,,,,pil_002,001,0.9,1.0,2023-03-22_14h39.54.521,stress,2023.1.0,60.08903993905168,
0,2,3,5,4,1,4,6,3,0,5,5,1,1,1,1,0,17,17,17,up,1,1.99464799999987,None,,,,pil_002,001,0.9,1.0,2023-03-22_14h39.54.521,stress,2023.1.0,60.08903993905168,
1,4,3,2,5,0,4,0,0,3,6,6,1,1,1,1,0,18,18,18,up,1,1.2085143999993306,None,,,,pil_002,001,0.9,1.0,2023-03-22_14h39.54.521,stress,2023.1.0,60.08903993905168,
0,3,5,2,4,1,4,0,3,6,3,5,1,1,0,1,0,19,19,19,left,1,1.8187768999996479,None,,,,pil_002,001,0.9,1.0,2023-03-22_14h39.54.521,stress,2023.1.0,60.08903993905168,
5,1,2,3,4,0,4,3,6,5,5,0,1,1,1,1,0,20,20,20,up,1,1.3345224999993661,None,,,,pil_002,001,0.9,1.0,2023-03-22_14h39.54.521,stress,2023.1.0,60.08903993905168,
4,1,5,0,2,3,4,5,6,5,6,0,1,0,1,1,0,21,21,21,up,1,1.7240785000012693,None,,,,pil_002,001,0.9,1.0,2023-03-22_14h39.54.521,stress,2023.1.0,60.08903993905168,
1,4,5,0,2,3,4,3,3,0,5,6,1,0,0,1,0,22,22,22,left,1,2.001465700001063,None,,,,pil_002,001,0.9,1.0,2023-03-22_14h39.54.521,stress,2023.1.0,60.08903993905168,
0,2,1,4,5,3,4,3,0,3,0,5,1,0,0,1,0,23,23,23,left,1,1.3648511999999755,None,,,,pil_002,001,0.9,1.0,2023-03-22_14h39.54.521,stress,2023.1.0,60.08903993905168,
5,4,3,2,1,0,4,6,0,6,5,0,1,0,0,1,0,24,24,24,left,1,0.9183038999999553,None,,,,pil_002,001,0.9,1.0,2023-03-22_14h39.54.521,stress,2023.1.0,60.08903993905168,
5,4,0,2,3,1,4,3,0,5,3,6,1,1,0,1,0,25,25,25,left,1,1.3313975999990362,None,,,,pil_002,001,0.9,1.0,2023-03-22_14h39.54.521,stress,2023.1.0,60.08903993905168,
4,2,0,1,3,5,4,3,5,5,0,3,1,0,1,1,0,26,26,26,up,1,2.323346400000446,None,,,,pil_002,001,0.9,1.0,2023-03-22_14h39.54.521,stress,2023.1.0,60.08903993905168,
4,0,2,3,5,1,4,0,0,5,3,6,1,1,0,1,0,27,27,27,left,1,3.133607600000687,None,,,,pil_002,001,0.9,1.0,2023-03-22_14h39.54.521,stress,2023.1.0,60.08903993905168,
5,0,2,4,1,3,4,0,5,6,3,6,1,1,1,1,0,28,28,28,up,1,1.1119390999992902,None,,,,pil_002,001,0.9,1.0,2023-03-22_14h39.54.521,stress,2023.1.0,60.08903993905168,
1,3,5,0,2,4,4,3,5,0,6,0,1,0,1,1,0,29,29,29,up,1,1.9763315000000148,None,,,,pil_002,001,0.9,1.0,2023-03-22_14h39.54.521,stress,2023.1.0,60.08903993905168,
5,0,4,3,2,1,4,5,6,3,3,0,1,1,1,1,0,30,30,30,up,1,2.665864099999453,None,,,,pil_002,001,0.9,1.0,2023-03-22_14h39.54.521,stress,2023.1.0,60.08903993905168,
3,2,4,5,1,0,4,5,5,3,6,3,1,0,1,1,0,31,31,31,up,1,1.9174204000009922,None,,,,pil_002,001,0.9,1.0,2023-03-22_14h39.54.521,stress,2023.1.0,60.08903993905168,
5,1,2,3,4,0,4,5,6,0,5,0,1,1,1,1,0,32,32,32,up,1,1.0737751000015123,None,,,,pil_002,001,0.9,1.0,2023-03-22_14h39.54.521,stress,2023.1.0,60.08903993905168,
4,3,1,2,5,0,4,6,5,3,0,5,1,1,0,1,0,33,33,33,left,1,1.6320144000001164,None,,,,pil_002,001,0.9,1.0,2023-03-22_14h39.54.521,stress,2023.1.0,60.08903993905168,
0,5,2,3,4,1,4,6,0,6,0,5,1,0,0,1,0,34,34,34,left,1,1.298143699999855,None,,,,pil_002,001,0.9,1.0,2023-03-22_14h39.54.521,stress,2023.1.0,60.08903993905168,
5,1,0,3,2,4,4,6,3,5,6,0,1,1,1,1,0,35,35,35,up,1,1.6757488000002922,None,,,,pil_002,001,0.9,1.0,2023-03-22_14h39.54.521,stress,2023.1.0,60.08903993905168,
4,3,2,5,0,1,4,5,5,3,6,3,1,0,1,1,0,36,36,36,up,1,1.4692245999995066,None,,,,pil_002,001,0.9,1.0,2023-03-22_14h39.54.521,stress,2023.1.0,60.08903993905168,
1,5,4,3,0,2,4,3,5,6,6,3,1,1,1,1,0,37,37,37,up,1,2.3098934999998164,None,,,,pil_002,001,0.9,1.0,2023-03-22_14h39.54.521,stress,2023.1.0,60.08903993905168,
3,4,0,2,1,5,4,0,5,3,6,6,1,0,0,1,0,38,38,38,left,1,2.2277462000001833,None,,,,pil_002,001,0.9,1.0,2023-03-22_14h39.54.521,stress,2023.1.0,60.08903993905168,
3,2,0,4,1,5,4,6,0,0,3,5,1,1,1,1,0,39,39,39,up,1,1.1126640000002226,space,18.92273000000023,,,pil_002,001,0.9,1.0,2023-03-22_14h39.54.521,stress,2023.1.0,60.08903993905168,
4,3,1,0,2,5,4,6,0,0,5,6,1,1,1,1,0,40,40,40,up,1,2.106388899999729,None,,,,pil_002,001,0.9,1.0,2023-03-22_14h39.54.521,stress,2023.1.0,60.08903993905168,
5,3,2,4,1,0,4,6,5,3,0,0,1,1,0,1,0,41,41,41,left,1,1.8428323999996792,None,,,,pil_002,001,0.9,1.0,2023-03-22_14h39.54.521,stress,2023.1.0,60.08903993905168,
1,2,5,4,3,0,4,0,0,6,5,6,1,1,0,1,0,42,42,42,left,1,1.5324751000007382,None,,,,pil_002,001,0.9,1.0,2023-03-22_14h39.54.521,stress,2023.1.0,60.08903993905168,
0,3,2,5,1,4,4,5,0,3,6,3,1,1,1,1,0,43,43,43,up,1,1.4832096000009187,None,,,,pil_002,001,0.9,1.0,2023-03-22_14h39.54.521,stress,2023.1.0,60.08903993905168,
4,0,5,1,2,3,4,6,5,3,0,0,1,0,0,1,0,44,44,44,left,1,1.6095285000010335,None,,,,pil_002,001,0.9,1.0,2023-03-22_14h39.54.521,stress,2023.1.0,60.08903993905168,
0,5,4,1,2,3,4,0,6,3,5,6,1,0,1,1,0,45,45,45,up,1,1.0075445000002219,None,,,,pil_002,001,0.9,1.0,2023-03-22_14h39.54.521,stress,2023.1.0,60.08903993905168,
4,0,1,2,3,5,4,6,0,5,3,5,1,1,0,1,0,46,46,46,left,1,1.542530299999271,None,,,,pil_002,001,0.9,1.0,2023-03-22_14h39.54.521,stress,2023.1.0,60.08903993905168,
2,1,4,0,3,5,4,5,0,6,3,6,1,0,1,1,0,47,47,47,up,1,2.1229249000007258,None,,,,pil_002,001,0.9,1.0,2023-03-22_14h39.54.521,stress,2023.1.0,60.08903993905168,
2,1,5,3,0,4,4,3,0,5,3,6,1,1,1,1,0,48,48,48,up,1,1.4593857999989268,None,,,,pil_002,001,0.9,1.0,2023-03-22_14h39.54.521,stress,2023.1.0,60.08903993905168,
5,2,1,4,0,3,4,0,5,3,6,0,0,0,1,1,0,49,49,49,up,1,1.07038829999874,None,,,,pil_002,001,0.9,1.0,2023-03-22_14h39.54.521,stress,2023.1.0,60.08903993905168,
3,4,2,1,5,0,4,5,6,5,0,0,1,0,0,1,0,50,50,50,left,1,1.0180557000003319,None,,,,pil_002,001,0.9,1.0,2023-03-22_14h39.54.521,stress,2023.1.0,60.08903993905168,
2,1,5,0,4,3,4,6,0,0,5,6,1,1,0,1,0,51,51,51,left,1,1.4636895999992703,None,,,,pil_002,001,0.9,1.0,2023-03-22_14h39.54.521,stress,2023.1.0,60.08903993905168,
2,4,3,0,1,5,4,0,5,3,6,6,1,0,0,1,0,52,52,52,left,1,1.8161532000012812,None,,,,pil_002,001,0.9,1.0,2023-03-22_14h39.54.521,stress,2023.1.0,60.08903993905168,
5,2,0,4,3,1,4,0,5,3,3,6,1,0,0,1,0,53,53,53,left,1,1.1011214000009204,None,,,,pil_002,001,0.9,1.0,2023-03-22_14h39.54.521,stress,2023.1.0,60.08903993905168,
3,4,5,2,1,0,4,5,3,3,6,6,1,0,0,1,0,54,54,54,left,1,2.968713899999784,None,,,,pil_002,001,0.9,1.0,2023-03-22_14h39.54.521,stress,2023.1.0,60.08903993905168,
5,1,0,4,2,3,4,5,5,6,0,0,1,0,0,1,0,55,55,55,left,1,0.9888182999984565,None,,,,pil_002,001,0.9,1.0,2023-03-22_14h39.54.521,stress,2023.1.0,60.08903993905168,
4,0,5,2,1,3,4,0,3,5,6,3,1,0,0,1,0,56,56,56,left,1,0.6152133999985381,None,,,,pil_002,001,0.9,1.0,2023-03-22_14h39.54.521,stress,2023.1.0,60.08903993905168,
1,2,0,5,3,4,4,5,0,3,5,0,1,0,1,1,0,57,57,57,up,1,0.685587799998757,None,,,,pil_002,001,0.9,1.0,2023-03-22_14h39.54.521,stress,2023.1.0,60.08903993905168,
2,3,5,0,4,1,4,3,3,0,0,6,1,1,1,1,0,58,58,58,up,1,0.872279700000945,None,,,,pil_002,001,0.9,1.0,2023-03-22_14h39.54.521,stress,2023.1.0,60.08903993905168,
2,5,4,3,1,0,4,3,0,6,6,0,1,0,0,1,0,59,59,59,up,0,0.6703027999992628,None,,,,pil_002,001,0.9,1.0,2023-03-22_14h39.54.521,stress,2023.1.0,60.08903993905168,
0,4,2,3,5,1,4,3,5,0,3,5,1,1,0,1,0,60,60,60,left,1,1.4742599000001064,None,,,,pil_002,001,0.9,1.0,2023-03-22_14h39.54.521,stress,2023.1.0,60.08903993905168,
3,1,5,2,4,0,4,5,0,6,0,6,1,1,1,1,0,61,61,61,up,1,0.8899543000006815,None,,,,pil_002,001,0.9,1.0,2023-03-22_14h39.54.521,stress,2023.1.0,60.08903993905168,
3,5,2,4,1,0,4,3,3,5,6,6,1,1,1,1,0,62,62,62,up,1,4.101884400000927,None,,,,pil_002,001,0.9,1.0,2023-03-22_14h39.54.521,stress,2023.1.0,60.08903993905168,
5,4,2,0,3,1,4,3,0,5,6,5,0,0,0,1,0,63,63,63,left,1,1.9518375999996351,None,,,,pil_002,001,0.9,1.0,2023-03-22_14h39.54.521,stress,2023.1.0,60.08903993905168,
2,1,5,3,0,4,4,6,6,3,3,5,0,0,0,1,0,64,64,64,left,1,1.8176465999986249,None,,,,pil_002,001,0.9,1.0,2023-03-22_14h39.54.521,stress,2023.1.0,60.08903993905168,
2,4,0,5,3,1,4,0,6,5,0,3,1,0,0,1,0,65,65,65,left,1,0.8570854999998119,None,,,,pil_002,001,0.9,1.0,2023-03-22_14h39.54.521,stress,2023.1.0,60.08903993905168,
0,1,3,4,5,2,4,5,6,3,5,0,1,1,0,1,0,66,66,66,left,1,2.121132599999328,None,,,,pil_002,001,0.9,1.0,2023-03-22_14h39.54.521,stress,2023.1.0,60.08903993905168,
5,3,4,1,0,2,4,0,6,3,3,5,1,1,1,1,0,67,67,67,up,1,2.3462868999995408,None,,,,pil_002,001,0.9,1.0,2023-03-22_14h39.54.521,stress,2023.1.0,60.08903993905168,
0,2,1,3,4,5,4,3,5,3,6,0,1,1,1,1,0,68,68,68,up,1,2.0412195999997493,None,,,,pil_002,001,0.9,1.0,2023-03-22_14h39.54.521,stress,2023.1.0,60.08903993905168,
4,1,3,2,0,5,4,0,5,0,5,3,1,1,0,1,0,69,69,69,left,1,1.4536840000000666,None,,,,pil_002,001,0.9,1.0,2023-03-22_14h39.54.521,stress,2023.1.0,60.08903993905168,
2,1,3,0,5,4,4,5,6,6,3,0,1,1,0,1,0,70,70,70,left,1,1.5033677999999782,None,,,,pil_002,001,0.9,1.0,2023-03-22_14h39.54.521,stress,2023.1.0,60.08903993905168,
5,3,4,2,0,1,4,5,0,6,0,6,1,0,0,1,0,71,71,71,left,1,1.1232450000006793,None,,,,pil_002,001,0.9,1.0,2023-03-22_14h39.54.521,stress,2023.1.0,60.08903993905168,
0,1,4,5,3,2,4,6,3,0,5,3,1,1,1,1,0,72,72,72,up,1,0.8974299999990762,None,,,,pil_002,001,0.9,1.0,2023-03-22_14h39.54.521,stress,2023.1.0,60.08903993905168,
4,5,3,1,0,2,4,3,6,6,3,0,1,0,1,1,0,73,73,73,up,1,3.0757246000011946,None,,,,pil_002,001,0.9,1.0,2023-03-22_14h39.54.521,stress,2023.1.0,60.08903993905168,
2,3,4,5,0,1,4,3,6,0,6,5,1,1,0,1,0,74,74,74,left,1,1.4249245999999403,None,,,,pil_002,001,0.9,1.0,2023-03-22_14h39.54.521,stress,2023.1.0,60.08903993905168,
2,3,0,1,4,5,4,6,0,3,5,5,1,1,1,1,0,75,75,75,up,1,1.3145335000008345,None,,,,pil_002,001,0.9,1.0,2023-03-22_14h39.54.521,stress,2023.1.0,60.08903993905168,
5,1,3,2,0,4,4,0,3,5,5,3,1,1,0,1,0,76,76,76,left,1,2.011239100000239,None,,,,pil_002,001,0.9,1.0,2023-03-22_14h39.54.521,stress,2023.1.0,60.08903993905168,
2,0,4,1,5,3,4,0,6,5,3,3,1,0,1,1,0,77,77,77,up,1,1.3502167999995436,None,,,,pil_002,001,0.9,1.0,2023-03-22_14h39.54.521,stress,2023.1.0,60.08903993905168,
4,3,1,2,5,0,4,0,3,5,3,6,1,0,0,1,0,78,78,78,left,1,1.591013600000224,None,,,,pil_002,001,0.9,1.0,2023-03-22_14h39.54.521,stress,2023.1.0,60.08903993905168,
1,5,0,4,2,3,4,3,5,0,5,6,1,1,1,1,0,79,79,79,up,1,2.1896809000008943,space,2.482393800000864,,,pil_002,001,0.9,1.0,2023-03-22_14h39.54.521,stress,2023.1.0,60.08903993905168,
2,5,3,4,1,0,4,6,5,6,5,0,1,1,0,1,0,80,80,80,left,1,1.094454100000803,None,,,,pil_002,001,0.9,1.0,2023-03-22_14h39.54.521,stress,2023.1.0,60.08903993905168,
0,2,3,5,1,4,4,6,3,0,5,0,1,1,1,1,0,81,81,81,up,1,1.76400570000078,None,,,,pil_002,001,0.9,1.0,2023-03-22_14h39.54.521,stress,2023.1.0,60.08903993905168,
3,4,1,5,0,2,4,0,3,5,6,6,1,0,1,1,0,82,82,82,up,1,1.267468000000008,None,,,,pil_002,001,0.9,1.0,2023-03-22_14h39.54.521,stress,2023.1.0,60.08903993905168,
2,1,4,5,3,0,4,0,0,5,3,5,1,0,0,1,0,83,83,83,left,1,2.072537000000011,None,,,,pil_002,001,0.9,1.0,2023-03-22_14h39.54.521,stress,2023.1.0,60.08903993905168,
4,2,5,3,1,0,4,3,0,5,0,3,1,0,0,1,0,84,84,84,left,1,1.4993871999995463,None,,,,pil_002,001,0.9,1.0,2023-03-22_14h39.54.521,stress,2023.1.0,60.08903993905168,
5,3,2,4,0,1,4,5,0,0,6,6,1,0,1,1,0,85,85,85,up,1,0.9268358000008448,None,,,,pil_002,001,0.9,1.0,2023-03-22_14h39.54.521,stress,2023.1.0,60.08903993905168,
5,4,3,0,1,2,4,3,5,6,0,6,1,1,1,1,0,86,86,86,up,1,0.9622405999998591,None,,,,pil_002,001,0.9,1.0,2023-03-22_14h39.54.521,stress,2023.1.0,60.08903993905168,
1,0,5,3,2,4,4,5,6,3,0,3,1,0,0,1,0,87,87,87,left,1,1.6046399000006204,None,,,,pil_002,001,0.9,1.0,2023-03-22_14h39.54.521,stress,2023.1.0,60.08903993905168,
5,2,0,1,4,3,4,3,0,5,6,6,1,1,1,1,0,88,88,88,up,1,1.3177788000011788,None,,,,pil_002,001,0.9,1.0,2023-03-22_14h39.54.521,stress,2023.1.0,60.08903993905168,
4,3,1,0,5,2,4,3,0,5,3,5,1,0,1,1,0,89,89,89,up,1,2.3193097000003036,None,,,,pil_002,001,0.9,1.0,2023-03-22_14h39.54.521,stress,2023.1.0,60.08903993905168,
5,0,1,2,3,4,4,0,0,3,6,3,1,1,0,1,0,90,90,90,up,0,1.4223115999993752,None,,,,pil_002,001,0.9,1.0,2023-03-22_14h39.54.521,stress,2023.1.0,60.08903993905168,
5,1,3,2,4,0,4,6,0,5,3,6,1,1,1,1,0,91,91,91,up,1,1.1104433000000427,None,,,,pil_002,001,0.9,1.0,2023-03-22_14h39.54.521,stress,2023.1.0,60.08903993905168,
5,1,2,3,4,0,4,6,0,0,3,5,0,1,1,1,0,92,92,92,up,1,1.09963290000087,None,,,,pil_002,001,0.9,1.0,2023-03-22_14h39.54.521,stress,2023.1.0,60.08903993905168,
1,5,2,4,3,0,4,0,3,6,6,3,1,0,1,1,0,93,93,93,up,1,1.7702428999982658,None,,,,pil_002,001,0.9,1.0,2023-03-22_14h39.54.521,stress,2023.1.0,60.08903993905168,
3,1,0,5,4,2,4,0,3,3,0,6,1,1,0,1,0,94,94,94,left,1,1.1294213000001037,None,,,,pil_002,001,0.9,1.0,2023-03-22_14h39.54.521,stress,2023.1.0,60.08903993905168,
4,5,0,3,2,1,4,5,0,6,3,6,1,0,0,1,0,95,95,95,left,1,1.2505759000014223,None,,,,pil_002,001,0.9,1.0,2023-03-22_14h39.54.521,stress,2023.1.0,60.08903993905168,
2,1,3,0,4,5,4,0,3,6,0,3,1,0,1,1,0,96,96,96,up,1,1.8965822000009211,None,,,,pil_002,001,0.9,1.0,2023-03-22_14h39.54.521,stress,2023.1.0,60.08903993905168,
4,2,3,0,1,5,4,5,0,5,3,0,1,0,1,1,0,97,97,97,up,1,1.4550677000006544,None,,,,pil_002,001,0.9,1.0,2023-03-22_14h39.54.521,stress,2023.1.0,60.08903993905168,
4,0,3,5,2,1,4,3,5,0,6,3,1,1,0,1,0,98,98,98,left,1,0.8361046999998507,None,,,,pil_002,001,0.9,1.0,2023-03-22_14h39.54.521,stress,2023.1.0,60.08903993905168,
1,5,0,2,4,3,4,3,5,3,6,0,1,0,0,1,0,99,99,99,left,1,1.1554654999999912,None,,,,pil_002,001,0.9,1.0,2023-03-22_14h39.54.521,stress,2023.1.0,60.08903993905168,
0,4,2,3,1,5,4,3,3,0,6,5,0,0,0,1,0,100,100,100,left,1,1.9900434999999561,None,,,,pil_002,001,0.9,1.0,2023-03-22_14h39.54.521,stress,2023.1.0,60.08903993905168,
3,4,2,0,5,1,4,3,5,0,6,6,1,0,0,1,0,101,101,101,left,1,2.0229742000010447,None,,,,pil_002,001,0.9,1.0,2023-03-22_14h39.54.521,stress,2023.1.0,60.08903993905168,
1,2,5,3,4,0,4,0,5,3,6,6,1,0,0,1,0,102,102,102,left,1,4.042992200000299,None,,,,pil_002,001,0.9,1.0,2023-03-22_14h39.54.521,stress,2023.1.0,60.08903993905168,
5,1,2,0,3,4,4,0,3,6,5,3,1,1,1,1,0,103,103,103,up,1,2.4816480000008596,None,,,,pil_002,001,0.9,1.0,2023-03-22_14h39.54.521,stress,2023.1.0,60.08903993905168,
4,1,5,2,3,0,4,5,5,0,3,6,1,0,0,1,0,104,104,104,left,1,1.0569962999998097,None,,,,pil_002,001,0.9,1.0,2023-03-22_14h39.54.521,stress,2023.1.0,60.08903993905168,
1,5,0,2,4,3,4,6,0,0,5,5,1,1,1,1,0,105,105,105,up,1,1.406346299998404,None,,,,pil_002,001,0.9,1.0,2023-03-22_14h39.54.521,stress,2023.1.0,60.08903993905168,
4,5,0,1,3,2,4,0,3,0,5,3,1,0,1,1,0,106,106,106,up,1,1.050646699999561,None,,,,pil_002,001,0.9,1.0,2023-03-22_14h39.54.521,stress,2023.1.0,60.08903993905168,
5,0,2,1,4,3,4,6,3,5,5,0,1,1,1,1,0,107,107,107,up,1,0.6652673999997205,None,,,,pil_002,001,0.9,1.0,2023-03-22_14h39.54.521,stress,2023.1.0,60.08903993905168,
5,2,4,1,3,0,4,6,3,6,3,0,1,1,0,1,0,108,108,108,left,1,3.1888934999988123,None,,,,pil_002,001,0.9,1.0,2023-03-22_14h39.54.521,stress,2023.1.0,60.08903993905168,
3,2,4,1,0,5,4,0,6,5,6,3,1,0,0,1,0,109,109,109,left,1,1.4636567999987165,None,,,,pil_002,001,0.9,1.0,2023-03-22_14h39.54.521,stress,2023.1.0,60.08903993905168,
5,4,2,1,0,3,4,6,5,5,0,0,1,0,0,1,0,110,110,110,left,1,0.9830418000001373,None,,,,pil_002,001,0.9,1.0,2023-03-22_14h39.54.521,stress,2023.1.0,60.08903993905168,
4,5,2,3,1,0,4,3,0,6,6,0,1,1,0,1,0,111,111,111,left,1,1.9755593999998382,None,,,,pil_002,001,0.9,1.0,2023-03-22_14h39.54.521,stress,2023.1.0,60.08903993905168,
0,1,4,5,2,3,4,5,3,3,6,6,1,0,1,1,0,112,112,112,up,1,0.8332447000011598,None,,,,pil_002,001,0.9,1.0,2023-03-22_14h39.54.521,stress,2023.1.0,60.08903993905168,
1,2,3,4,5,0,4,3,3,0,6,5,1,1,0,1,0,113,113,113,left,1,1.5390661000001273,None,,,,pil_002,001,0.9,1.0,2023-03-22_14h39.54.521,stress,2023.1.0,60.08903993905168,
3,5,4,0,1,2,4,0,0,3,5,3,0,0,0,1,0,114,114,114,left,1,1.3379681000005803,None,,,,pil_002,001,0.9,1.0,2023-03-22_14h39.54.521,stress,2023.1.0,60.08903993905168,
4,1,0,5,3,2,4,3,6,0,5,6,1,1,1,1,0,115,115,115,up,1,1.0948015000012674,None,,,,pil_002,001,0.9,1.0,2023-03-22_14h39.54.521,stress,2023.1.0,60.08903993905168,
5,3,1,2,4,0,4,0,3,5,0,6,1,0,1,1,0,116,116,116,up,1,0.9100299000001542,None,,,,pil_002,001,0.9,1.0,2023-03-22_14h39.54.521,stress,2023.1.0,60.08903993905168,
4,5,2,1,3,0,4,0,3,6,3,5,1,0,0,1,0,117,117,117,left,1,1.0180670000008831,None,,,,pil_002,001,0.9,1.0,2023-03-22_14h39.54.521,stress,2023.1.0,60.08903993905168,
4,3,0,5,2,1,4,0,0,3,5,5,1,1,1,1,0,118,118,118,up,1,0.6167000999994343,None,,,,pil_002,001,0.9,1.0,2023-03-22_14h39.54.521,stress,2023.1.0,60.08903993905168,
0,4,1,3,5,2,4,5,3,0,0,5,1,0,1,1,0,119,119,119,up,1,0.8688441999984207,space,1.3973702000002959,,,pil_002,001,0.9,1.0,2023-03-22_14h39.54.521,stress,2023.1.0,60.08903993905168,
1,0,3,5,2,4,4,0,3,0,5,6,1,0,0,1,0,120,120,120,left,1,0.8188905999995768,None,,,,pil_002,001,0.9,1.0,2023-03-22_14h39.54.521,stress,2023.1.0,60.08903993905168,
0,2,3,5,4,1,4,6,3,5,6,3,1,0,0,1,0,121,121,121,left,1,1.1023387999994156,None,,,,pil_002,001,0.9,1.0,2023-03-22_14h39.54.521,stress,2023.1.0,60.08903993905168,
4,1,0,2,3,5,4,0,0,6,3,5,1,0,0,1,0,122,122,122,left,1,1.2885454999996,None,,,,pil_002,001,0.9,1.0,2023-03-22_14h39.54.521,stress,2023.1.0,60.08903993905168,
0,5,2,3,1,4,4,3,5,6,0,3,1,1,0,1,0,123,123,123,left,1,4.07649919999858,None,,,,pil_002,001,0.9,1.0,2023-03-22_14h39.54.521,stress,2023.1.0,60.08903993905168,
1,3,2,0,4,5,4,6,3,0,0,6,0,1,0,1,0,124,124,124,left,1,0.919149400000606,None,,,,pil_002,001,0.9,1.0,2023-03-22_14h39.54.521,stress,2023.1.0,60.08903993905168,
2,3,4,0,1,5,4,0,3,0,6,5,1,0,0,1,0,125,125,125,left,1,1.0209501000008459,None,,,,pil_002,001,0.9,1.0,2023-03-22_14h39.54.521,stress,2023.1.0,60.08903993905168,
0,2,5,4,3,1,4,3,3,0,5,6,1,0,0,1,0,126,126,126,left,1,0.6412619000002451,None,,,,pil_002,001,0.9,1.0,2023-03-22_14h39.54.521,stress,2023.1.0,60.08903993905168,
1,5,0,2,4,3,4,5,3,0,6,6,1,0,1,1,0,127,127,127,up,1,1.3183346999994683,None,,,,pil_002,001,0.9,1.0,2023-03-22_14h39.54.521,stress,2023.1.0,60.08903993905168,
1,5,2,4,0,3,4,6,0,3,3,0,0,0,0,1,0,128,128,128,left,1,0.8350169000004826,None,,,,pil_002,001,0.9,1.0,2023-03-22_14h39.54.521,stress,2023.1.0,60.08903993905168,
4,5,3,2,0,1,4,0,3,0,5,5,1,1,1,1,0,129,129,129,up,1,2.08698430000004,None,,,,pil_002,001,0.9,1.0,2023-03-22_14h39.54.521,stress,2023.1.0,60.08903993905168,
3,4,5,1,0,2,4,0,6,3,5,3,0,1,1,1,0,130,130,130,up,1,2.767486299999291,None,,,,pil_002,001,0.9,1.0,2023-03-22_14h39.54.521,stress,2023.1.0,60.08903993905168,
4,3,1,5,2,0,4,5,3,5,0,3,1,1,0,1,0,131,131,131,left,1,1.024148200000127,None,,,,pil_002,001,0.9,1.0,2023-03-22_14h39.54.521,stress,2023.1.0,60.08903993905168,
1,4,3,2,0,5,4,5,3,6,0,5,1,1,0,1,0,132,132,132,left,1,1.0538613999997324,None,,,,pil_002,001,0.9,1.0,2023-03-22_14h39.54.521,stress,2023.1.0,60.08903993905168,
2,4,1,0,5,3,4,5,0,3,6,3,1,0,1,1,0,133,133,133,up,1,1.5965066999997362,None,,,,pil_002,001,0.9,1.0,2023-03-22_14h39.54.521,stress,2023.1.0,60.08903993905168,
4,5,0,2,1,3,4,3,5,3,6,6,1,1,1,1,0,134,134,134,up,1,1.3612701000001834,None,,,,pil_002,001,0.9,1.0,2023-03-22_14h39.54.521,stress,2023.1.0,60.08903993905168,
4,5,3,1,0,2,4,3,0,0,6,5,1,0,0,1,0,135,135,135,left,1,1.1858750999999756,None,,,,pil_002,001,0.9,1.0,2023-03-22_14h39.54.521,stress,2023.1.0,60.08903993905168,
0,4,1,2,5,3,4,0,6,6,3,3,1,0,0,1,0,136,136,136,left,1,1.1462335000014718,None,,,,pil_002,001,0.9,1.0,2023-03-22_14h39.54.521,stress,2023.1.0,60.08903993905168,
4,2,1,3,0,5,4,5,3,0,0,6,1,0,1,1,0,137,137,137,up,1,1.1141812000005302,None,,,,pil_002,001,0.9,1.0,2023-03-22_14h39.54.521,stress,2023.1.0,60.08903993905168,
2,5,3,0,1,4,4,3,6,3,5,6,1,0,0,1,0,138,138,138,left,1,1.4231343999999808,None,,,,pil_002,001,0.9,1.0,2023-03-22_14h39.54.521,stress,2023.1.0,60.08903993905168,
0,4,5,3,1,2,4,6,5,3,5,0,1,1,0,1,0,139,139,139,left,1,0.8200820999991265,None,,,,pil_002,001,0.9,1.0,2023-03-22_14h39.54.521,stress,2023.1.0,60.08903993905168,
3,1,0,5,4,2,4,3,0,6,6,0,0,1,1,1,0,140,140,140,up,1,1.9956327999989298,None,,,,pil_002,001,0.9,1.0,2023-03-22_14h39.54.521,stress,2023.1.0,60.08903993905168,
0,2,5,4,3,1,4,0,5,0,3,5,1,1,1,1,0,141,141,141,up,1,1.306147499999497,None,,,,pil_002,001,0.9,1.0,2023-03-22_14h39.54.521,stress,2023.1.0,60.08903993905168,
1,4,3,5,0,2,4,3,6,6,5,0,1,1,1,1,0,142,142,142,up,1,0.9123460999999224,None,,,,pil_002,001,0.9,1.0,2023-03-22_14h39.54.521,stress,2023.1.0,60.08903993905168,
3,5,0,4,2,1,4,3,5,6,5,6,1,1,1,1,0,143,143,143,up,1,1.4352450999995199,None,,,,pil_002,001,0.9,1.0,2023-03-22_14h39.54.521,stress,2023.1.0,60.08903993905168,
0,3,4,5,1,2,4,5,3,3,0,6,1,1,0,1,0,144,144,144,left,1,2.674100600001111,None,,,,pil_002,001,0.9,1.0,2023-03-22_14h39.54.521,stress,2023.1.0,60.08903993905168,
3,0,2,4,5,1,4,0,3,5,3,5,1,0,1,1,0,145,145,145,up,1,0.7363062999993417,None,,,,pil_002,001,0.9,1.0,2023-03-22_14h39.54.521,stress,2023.1.0,60.08903993905168,
0,2,1,4,5,3,4,3,3,6,6,5,1,1,1,1,0,146,146,146,up,1,0.737659899999926,None,,,,pil_002,001,0.9,1.0,2023-03-22_14h39.54.521,stress,2023.1.0,60.08903993905168,
2,1,4,5,3,0,4,6,3,6,0,5,1,0,0,1,0,147,147,147,left,1,1.2876993999998376,None,,,,pil_002,001,0.9,1.0,2023-03-22_14h39.54.521,stress,2023.1.0,60.08903993905168,
0,2,4,3,5,1,4,5,5,6,3,3,1,0,0,1,0,148,148,148,left,1,0.7093277999993006,None,,,,pil_002,001,0.9,1.0,2023-03-22_14h39.54.521,stress,2023.1.0,60.08903993905168,
0,3,2,1,4,5,4,0,5,3,3,0,1,0,1,1,0,149,149,149,up,1,0.5187442000005831,None,,,,pil_002,001,0.9,1.0,2023-03-22_14h39.54.521,stress,2023.1.0,60.08903993905168,
2,3,4,0,1,5,4,3,0,3,6,6,1,1,1,1,0,150,150,150,up,1,3.2379561999987345,None,,,,pil_002,001,0.9,1.0,2023-03-22_14h39.54.521,stress,2023.1.0,60.08903993905168,
4,3,5,1,0,2,4,3,5,6,0,3,1,1,1,1,0,151,151,151,up,1,1.1500138999999763,None,,,,pil_002,001,0.9,1.0,2023-03-22_14h39.54.521,stress,2023.1.0,60.08903993905168,
0,3,5,2,1,4,4,0,6,6,3,3,1,0,1,1,0,152,152,152,up,1,0.8020355999997264,None,,,,pil_002,001,0.9,1.0,2023-03-22_14h39.54.521,stress,2023.1.0,60.08903993905168,
1,2,5,4,0,3,4,3,0,6,5,6,1,1,1,1,0,153,153,153,up,1,0.705770599999596,None,,,,pil_002,001,0.9,1.0,2023-03-22_14h39.54.521,stress,2023.1.0,60.08903993905168,
1,3,4,5,0,2,4,3,5,6,0,6,1,1,1,1,0,154,154,154,up,1,0.6740250999991986,None,,,,pil_002,001,0.9,1.0,2023-03-22_14h39.54.521,stress,2023.1.0,60.08903993905168,
0,2,4,5,1,3,4,3,3,6,0,5,1,0,0,1,0,155,155,155,left,1,0.606190800001059,None,,,,pil_002,001,0.9,1.0,2023-03-22_14h39.54.521,stress,2023.1.0,60.08903993905168,
2,5,1,3,4,0,4,6,0,6,5,3,0,1,1,1,0,156,156,156,up,1,1.1870615999996517,None,,,,pil_002,001,0.9,1.0,2023-03-22_14h39.54.521,stress,2023.1.0,60.08903993905168,
5,4,1,2,0,3,4,5,0,3,3,5,1,0,0,1,0,157,157,157,left,1,0.7080566999993607,None,,,,pil_002,001,0.9,1.0,2023-03-22_14h39.54.521,stress,2023.1.0,60.08903993905168,
1,0,2,3,4,5,4,3,6,6,5,3,1,0,0,1,0,158,158,158,left,1,1.6455521999996563,None,,,,pil_002,001,0.9,1.0,2023-03-22_14h39.54.521,stress,2023.1.0,60.08903993905168,
0,1,2,3,5,4,4,5,3,6,3,5,1,0,0,1,0,159,159,159,left,1,0.5832640000007814,space,1.844149099999413,,,pil_002,001,0.9,1.0,2023-03-22_14h39.54.521,stress,2023.1.0,60.08903993905168,
3,4,5,1,2,0,4,3,6,3,0,6,1,0,0,1,0,160,160,160,left,1,1.0865262000006624,None,,,,pil_002,001,0.9,1.0,2023-03-22_14h39.54.521,stress,2023.1.0,60.08903993905168,
2,4,0,1,5,3,4,5,3,3,5,0,1,0,0,1,0,161,161,161,left,1,1.9930868000010378,None,,,,pil_002,001,0.9,1.0,2023-03-22_14h39.54.521,stress,2023.1.0,60.08903993905168,
1,2,4,5,3,0,4,3,5,5,6,6,0,1,1,1,0,162,162,162,up,1,5.203603500000099,None,,,,pil_002,001,0.9,1.0,2023-03-22_14h39.54.521,stress,2023.1.0,60.08903993905168,
2,0,3,5,1,4,4,3,5,0,5,3,1,0,1,1,0,163,163,163,up,1,2.851594499999919,None,,,,pil_002,001,0.9,1.0,2023-03-22_14h39.54.521,stress,2023.1.0,60.08903993905168,
1,3,4,5,0,2,4,3,5,5,0,3,1,0,0,1,0,164,164,164,left,1,3.313848300000245,None,,,,pil_002,001,0.9,1.0,2023-03-22_14h39.54.521,stress,2023.1.0,60.08903993905168,
5,2,0,1,3,4,4,6,6,3,0,3,1,0,0,1,0,165,165,165,left,1,2.98941670000022,None,,,,pil_002,001,0.9,1.0,2023-03-22_14h39.54.521,stress,2023.1.0,60.08903993905168,
5,2,3,0,4,1,4,0,6,5,0,3,1,1,1,1,0,166,166,166,up,1,1.38835139999901,None,,,,pil_002,001,0.9,1.0,2023-03-22_14h39.54.521,stress,2023.1.0,60.08903993905168,
3,0,1,4,5,2,4,3,6,6,5,0,1,0,1,1,0,167,167,167,up,1,7.555472699999882,None,,,,pil_002,001,0.9,1.0,2023-03-22_14h39.54.521,stress,2023.1.0,60.08903993905168,
2,1,4,5,3,0,4,3,6,0,5,0,1,1,1,1,0,168,168,168,up,1,0.7369527999999264,None,,,,pil_002,001,0.9,1.0,2023-03-22_14h39.54.521,stress,2023.1.0,60.08903993905168,
5,0,2,4,1,3,4,3,0,5,3,6,1,0,1,1,0,169,169,169,up,1,0.9081169000000955,None,,,,pil_002,001,0.9,1.0,2023-03-22_14h39.54.521,stress,2023.1.0,60.08903993905168,
0,1,4,5,3,2,4,3,5,6,5,6,1,1,0,1,0,170,170,170,left,1,1.0428781000009621,None,,,,pil_002,001,0.9,1.0,2023-03-22_14h39.54.521,stress,2023.1.0,60.08903993905168,
0,5,2,1,4,3,4,5,6,0,5,3,1,0,0,1,0,171,171,171,left,1,0.6290315000005648,None,,,,pil_002,001,0.9,1.0,2023-03-22_14h39.54.521,stress,2023.1.0,60.08903993905168,
2,0,5,1,3,4,4,0,5,5,6,3,1,0,1,1,0,172,172,172,up,1,1.1784603999985848,None,,,,pil_002,001,0.9,1.0,2023-03-22_14h39.54.521,stress,2023.1.0,60.08903993905168,
0,4,1,2,5,3,4,3,0,6,5,6,0,0,1,1,0,173,173,173,up,1,1.2496867000008933,None,,,,pil_002,001,0.9,1.0,2023-03-22_14h39.54.521,stress,2023.1.0,60.08903993905168,
4,3,0,5,1,2,4,6,5,5,0,3,1,1,1,1,0,174,174,174,up,1,1.291801100000157,None,,,,pil_002,001,0.9,1.0,2023-03-22_14h39.54.521,stress,2023.1.0,60.08903993905168,
1,5,2,0,3,4,4,6,3,5,3,0,1,1,1,1,0,175,175,175,up,1,1.1437114999989717,None,,,,pil_002,001,0.9,1.0,2023-03-22_14h39.54.521,stress,2023.1.0,60.08903993905168,
1,4,5,2,0,3,4,6,5,3,0,6,1,1,1,1,0,176,176,176,up,1,1.487106999999014,None,,,,pil_002,001,0.9,1.0,2023-03-22_14h39.54.521,stress,2023.1.0,60.08903993905168,
5,2,1,3,4,0,4,5,3,6,6,0,1,0,1,1,0,177,177,177,up,1,1.3564550999999483,None,,,,pil_002,001,0.9,1.0,2023-03-22_14h39.54.521,stress,2023.1.0,60.08903993905168,
5,2,3,1,0,4,4,6,5,3,3,5,1,1,1,1,0,178,178,178,up,1,0.6509311999998317,None,,,,pil_002,001,0.9,1.0,2023-03-22_14h39.54.521,stress,2023.1.0,60.08903993905168,
2,1,0,4,5,3,4,0,3,3,0,6,1,1,1,1,0,179,179,179,up,1,1.2006030000011378,None,,,,pil_002,001,0.9,1.0,2023-03-22_14h39.54.521,stress,2023.1.0,60.08903993905168,
0,3,5,4,2,1,4,6,3,0,5,6,1,1,0,1,0,180,180,180,left,1,1.069126899999901,None,,,,pil_002,001,0.9,1.0,2023-03-22_14h39.54.521,stress,2023.1.0,60.08903993905168,
4,2,1,3,5,0,4,6,3,5,0,6,1,1,1,1,0,181,181,181,up,1,1.3314780999990035,None,,,,pil_002,001,0.9,1.0,2023-03-22_14h39.54.521,stress,2023.1.0,60.08903993905168,
4,0,5,1,3,2,4,3,0,6,3,5,1,1,1,1,0,182,182,182,up,1,0.9113037999995868,None,,,,pil_002,001,0.9,1.0,2023-03-22_14h39.54.521,stress,2023.1.0,60.08903993905168,
2,3,0,1,5,4,4,3,6,0,5,3,0,1,1,1,0,183,183,183,up,1,1.4929379999994126,None,,,,pil_002,001,0.9,1.0,2023-03-22_14h39.54.521,stress,2023.1.0,60.08903993905168,
2,4,1,5,3,0,4,0,3,0,5,6,1,1,1,1,0,184,184,184,up,1,0.9309934000011708,None,,,,pil_002,001,0.9,1.0,2023-03-22_14h39.54.521,stress,2023.1.0,60.08903993905168,
2,5,0,4,3,1,4,0,5,3,6,5,0,1,1,1,0,185,185,185,up,1,1.2155657000002975,None,,,,pil_002,001,0.9,1.0,2023-03-22_14h39.54.521,stress,2023.1.0,60.08903993905168,
2,0,3,5,1,4,4,6,5,5,6,3,1,1,0,1,0,186,186,186,left,1,1.1659739000006084,None,,,,pil_002,001,0.9,1.0,2023-03-22_14h39.54.521,stress,2023.1.0,60.08903993905168,
1,5,4,0,2,3,4,6,5,0,3,6,1,1,1,1,0,187,187,187,up,1,1.4012533999994048,None,,,,pil_002,001,0.9,1.0,2023-03-22_14h39.54.521,stress,2023.1.0,60.08903993905168,
4,5,3,2,1,0,4,5,3,6,0,5,1,1,0,1,0,188,188,188,left,1,1.3734900999988895,None,,,,pil_002,001,0.9,1.0,2023-03-22_14h39.54.521,stress,2023.1.0,60.08903993905168,
0,5,2,1,4,3,4,0,5,5,6,3,1,1,1,1,0,189,189,189,up,1,1.2037722000004578,None,,,,pil_002,001,0.9,1.0,2023-03-22_14h39.54.521,stress,2023.1.0,60.08903993905168,
4,5,2,1,3,0,4,0,3,6,5,0,1,0,1,1,0,190,190,190,up,1,2.072747000000163,None,,,,pil_002,001,0.9,1.0,2023-03-22_14h39.54.521,stress,2023.1.0,60.08903993905168,
2,4,1,0,3,5,4,6,5,6,3,3,1,1,0,1,0,191,191,191,left,1,1.0823347000005015,None,,,,pil_002,001,0.9,1.0,2023-03-22_14h39.54.521,stress,2023.1.0,60.08903993905168,
5,3,4,0,2,1,4,3,6,6,5,0,1,1,1,1,0,192,192,192,up,1,0.8870760000008886,None,,,,pil_002,001,0.9,1.0,2023-03-22_14h39.54.521,stress,2023.1.0,60.08903993905168,
4,2,0,5,3,1,4,6,0,3,3,6,1,1,0,1,0,193,193,193,left,1,0.7798727999997936,None,,,,pil_002,001,0.9,1.0,2023-03-22_14h39.54.521,stress,2023.1.0,60.08903993905168,
2,5,4,3,0,1,4,3,6,5,5,0,0,0,1,1,0,194,194,194,up,1,1.4501474000007875,None,,,,pil_002,001,0.9,1.0,2023-03-22_14h39.54.521,stress,2023.1.0,60.08903993905168,
0,3,2,4,5,1,4,6,5,5,3,3,1,1,1,1,0,195,195,195,up,1,2.3815911000001506,None,,,,pil_002,001,0.9,1.0,2023-03-22_14h39.54.521,stress,2023.1.0,60.08903993905168,
5,4,3,2,1,0,4,5,6,3,3,6,1,0,0,1,0,196,196,196,left,1,2.2450128000000404,None,,,,pil_002,001,0.9,1.0,2023-03-22_14h39.54.521,stress,2023.1.0,60.08903993905168,
4,5,2,1,0,3,4,6,0,3,3,6,1,0,1,1,0,197,197,197,up,1,1.84981979999975,None,,,,pil_002,001,0.9,1.0,2023-03-22_14h39.54.521,stress,2023.1.0,60.08903993905168,
4,0,3,5,1,2,4,5,0,6,0,3,1,1,0,1,0,198,198,198,left,1,0.8441628999989916,None,,,,pil_002,001,0.9,1.0,2023-03-22_14h39.54.521,stress,2023.1.0,60.08903993905168,
1,3,0,4,5,2,4,6,5,3,6,0,1,0,1,1,0,199,199,199,up,1,1.0705675000008341,space,1.5715849000007438,,,pil_002,001,0.9,1.0,2023-03-22_14h39.54.521,stress,2023.1.0,60.08903993905168,
2,0,3,4,5,1,4,6,6,0,5,5,0,0,1,1,0,200,200,200,up,1,0.8706714999989345,None,,,,pil_002,001,0.9,1.0,2023-03-22_14h39.54.521,stress,2023.1.0,60.08903993905168,
4,5,3,1,2,0,4,5,0,3,0,6,1,1,1,1,0,201,201,201,up,1,0.663622199999736,None,,,,pil_002,001,0.9,1.0,2023-03-22_14h39.54.521,stress,2023.1.0,60.08903993905168,
5,1,2,0,3,4,4,6,3,0,0,5,1,0,1,1,0,202,202,202,up,1,0.651989500000127,None,,,,pil_002,001,0.9,1.0,2023-03-22_14h39.54.521,stress,2023.1.0,60.08903993905168,
3,5,4,1,2,0,4,5,0,3,0,3,1,1,0,1,0,203,203,203,left,1,1.1830208000010316,None,,,,pil_002,001,0.9,1.0,2023-03-22_14h39.54.521,stress,2023.1.0,60.08903993905168,
4,2,3,5,0,1,4,0,5,3,5,3,1,1,0,1,0,204,204,204,left,1,0.7349365000009129,None,,,,pil_002,001,0.9,1.0,2023-03-22_14h39.54.521,stress,2023.1.0,60.08903993905168,
4,1,3,2,0,5,4,0,5,5,3,6,1,0,0,1,0,205,205,205,left,1,0.8812017999989621,None,,,,pil_002,001,0.9,1.0,2023-03-22_14h39.54.521,stress,2023.1.0,60.08903993905168,
0,1,3,2,4,5,4,0,3,5,6,0,1,1,0,1,0,206,206,206,left,1,1.3768746000005194,None,,,,pil_002,001,0.9,1.0,2023-03-22_14h39.54.521,stress,2023.1.0,60.08903993905168,
2,0,3,5,4,1,4,0,0,6,5,3,1,1,0,1,0,207,207,207,left,1,1.5917668000001868,None,,,,pil_002,001,0.9,1.0,2023-03-22_14h39.54.521,stress,2023.1.0,60.08903993905168,
1,2,5,0,3,4,4,3,6,3,5,6,1,1,1,1,0,208,208,208,up,1,2.439482699999644,None,,,,pil_002,001,0.9,1.0,2023-03-22_14h39.54.521,stress,2023.1.0,60.08903993905168,
1,2,3,4,0,5,4,5,0,5,6,0,1,0,0,1,0,209,209,209,left,1,1.308635499999582,None,,,,pil_002,001,0.9,1.0,2023-03-22_14h39.54.521,stress,2023.1.0,60.08903993905168,
1,5,4,3,2,0,4,5,0,6,6,5,1,0,1,1,0,210,210,210,up,1,0.8811948999991728,None,,,,pil_002,001,0.9,1.0,2023-03-22_14h39.54.521,stress,2023.1.0,60.08903993905168,
4,3,0,1,2,5,4,3,6,5,6,0,1,0,0,1,0,211,211,211,left,1,0.9953308000003744,None,,,,pil_002,001,0.9,1.0,2023-03-22_14h39.54.521,stress,2023.1.0,60.08903993905168,
2,1,5,4,3,0,4,0,0,3,5,3,1,0,1,1,0,212,212,212,up,1,0.958311300000787,None,,,,pil_002,001,0.9,1.0,2023-03-22_14h39.54.521,stress,2023.1.0,60.08903993905168,
1,3,2,4,0,5,4,3,6,0,5,3,1,0,1,1,0,213,213,213,up,1,1.0597534999997151,None,,,,pil_002,001,0.9,1.0,2023-03-22_14h39.54.521,stress,2023.1.0,60.08903993905168,
3,4,5,0,2,1,4,3,6,0,5,0,1,1,0,1,0,214,214,214,left,1,1.1195643999999447,None,,,,pil_002,001,0.9,1.0,2023-03-22_14h39.54.521,stress,2023.1.0,60.08903993905168,
3,0,4,5,1,2,4,0,6,5,3,6,0,0,1,1,0,215,215,215,up,1,0.7879896000013105,None,,,,pil_002,001,0.9,1.0,2023-03-22_14h39.54.521,stress,2023.1.0,60.08903993905168,
2,3,4,1,5,0,4,3,6,0,5,3,1,0,1,1,0,216,216,216,up,1,1.041370700000698,None,,,,pil_002,001,0.9,1.0,2023-03-22_14h39.54.521,stress,2023.1.0,60.08903993905168,
1,2,4,3,5,0,4,3,0,5,6,5,1,1,1,1,0,217,217,217,up,1,1.6875381999998353,None,,,,pil_002,001,0.9,1.0,2023-03-22_14h39.54.521,stress,2023.1.0,60.08903993905168,
5,0,2,1,4,3,4,6,0,3,6,5,1,0,1,1,0,218,218,218,up,1,0.7310875999992277,None,,,,pil_002,001,0.9,1.0,2023-03-22_14h39.54.521,stress,2023.1.0,60.08903993905168,
4,5,0,2,1,3,4,5,5,3,6,0,0,0,0,1,0,219,219,219,left,1,0.8527801000000181,None,,,,pil_002,001,0.9,1.0,2023-03-22_14h39.54.521,stress,2023.1.0,60.08903993905168,
3,0,2,1,4,5,4,5,3,6,3,0,1,0,1,1,0,220,220,220,up,1,1.1075043000000733,None,,,,pil_002,001,0.9,1.0,2023-03-22_14h39.54.521,stress,2023.1.0,60.08903993905168,
0,4,1,2,3,5,4,6,3,0,5,5,1,1,0,1,0,221,221,221,left,1,1.6250263999991148,None,,,,pil_002,001,0.9,1.0,2023-03-22_14h39.54.521,stress,2023.1.0,60.08903993905168,
3,5,2,1,4,0,4,0,0,5,6,3,1,1,0,1,0,222,222,222,left,1,0.8421321000005264,None,,,,pil_002,001,0.9,1.0,2023-03-22_14h39.54.521,stress,2023.1.0,60.08903993905168,
5,3,1,0,4,2,4,0,5,6,3,6,1,0,0,1,0,223,223,223,left,1,0.9693634000013844,None,,,,pil_002,001,0.9,1.0,2023-03-22_14h39.54.521,stress,2023.1.0,60.08903993905168,
2,0,5,4,3,1,4,3,6,5,3,5,1,1,1,1,0,224,224,224,up,1,2.0531930000015564,None,,,,pil_002,001,0.9,1.0,2023-03-22_14h39.54.521,stress,2023.1.0,60.08903993905168,
5,0,4,3,2,1,4,3,6,5,0,3,1,1,0,1,0,225,225,225,left,1,4.046487099998558,None,,,,pil_002,001,0.9,1.0,2023-03-22_14h39.54.521,stress,2023.1.0,60.08903993905168,
5,0,2,3,1,4,4,3,0,6,5,6,1,0,1,1,0,226,226,226,up,1,1.019966800000475,None,,,,pil_002,001,0.9,1.0,2023-03-22_14h39.54.521,stress,2023.1.0,60.08903993905168,
4,2,1,5,3,0,4,6,3,0,6,5,1,1,0,1,0,227,227,227,left,1,1.8479107999992266,None,,,,pil_002,001,0.9,1.0,2023-03-22_14h39.54.521,stress,2023.1.0,60.08903993905168,
1,4,0,5,3,2,4,6,5,5,0,0,1,0,1,1,0,228,228,228,up,1,1.0286025000004884,None,,,,pil_002,001,0.9,1.0,2023-03-22_14h39.54.521,stress,2023.1.0,60.08903993905168,
2,3,1,4,0,5,4,0,3,5,5,0,0,0,1,1,0,229,229,229,up,1,0.9555059000012989,None,,,,pil_002,001,0.9,1.0,2023-03-22_14h39.54.521,stress,2023.1.0,60.08903993905168,
4,3,0,5,1,2,4,5,6,6,0,3,1,1,1,1,0,230,230,230,up,1,0.634671800000433,None,,,,pil_002,001,0.9,1.0,2023-03-22_14h39.54.521,stress,2023.1.0,60.08903993905168,
0,3,5,2,1,4,4,6,0,6,5,3,1,1,0,1,0,231,231,231,up,0,0.8195992000000842,None,,,,pil_002,001,0.9,1.0,2023-03-22_14h39.54.521,stress,2023.1.0,60.08903993905168,
3,4,1,0,2,5,4,3,0,0,6,5,1,0,0,1,0,232,232,232,left,1,0.9524080000010144,None,,,,pil_002,001,0.9,1.0,2023-03-22_14h39.54.521,stress,2023.1.0,60.08903993905168,
0,1,5,2,3,4,4,6,0,5,3,6,1,1,1,1,0,233,233,233,up,1,0.5372552999997424,None,,,,pil_002,001,0.9,1.0,2023-03-22_14h39.54.521,stress,2023.1.0,60.08903993905168,
0,4,3,5,1,2,4,5,0,3,6,0,1,0,1,1,0,234,234,234,up,1,1.139680899999803,None,,,,pil_002,001,0.9,1.0,2023-03-22_14h39.54.521,stress,2023.1.0,60.08903993905168,
4,5,1,3,2,0,4,5,6,0,3,5,1,1,0,1,0,235,235,235,left,1,0.9732175000008283,None,,,,pil_002,001,0.9,1.0,2023-03-22_14h39.54.521,stress,2023.1.0,60.08903993905168,
5,1,4,2,0,3,4,5,0,6,0,3,1,0,0,1,0,236,236,236,left,1,1.1160509000001184,None,,,,pil_002,001,0.9,1.0,2023-03-22_14h39.54.521,stress,2023.1.0,60.08903993905168,
5,4,2,3,0,1,4,0,3,0,6,5,1,1,0,1,0,237,237,237,left,1,1.0177294000004622,None,,,,pil_002,001,0.9,1.0,2023-03-22_14h39.54.521,stress,2023.1.0,60.08903993905168,
0,1,4,5,3,2,4,0,6,5,3,6,1,1,0,1,0,238,238,238,left,1,1.3250705000009475,None,,,,pil_002,001,0.9,1.0,2023-03-22_14h39.54.521,stress,2023.1.0,60.08903993905168,
4,0,3,1,5,2,4,6,3,6,3,0,1,0,1,1,0,239,239,239,up,1,1.9833147000008466,space,1.8315003999996406,,,pil_002,001,0.9,1.0,2023-03-22_14h39.54.521,stress,2023.1.0,60.08903993905168,
2,3,5,0,1,4,4,0,3,5,6,0,1,0,1,1,0,240,240,240,up,1,0.820117700000992,None,,,,pil_002,001,0.9,1.0,2023-03-22_14h39.54.521,stress,2023.1.0,60.08903993905168,
4,2,3,0,1,5,4,5,0,5,3,0,1,0,0,1,0,241,241,241,left,1,1.1548335000006773,None,,,,pil_002,001,0.9,1.0,2023-03-22_14h39.54.521,stress,2023.1.0,60.08903993905168,
3,5,4,1,0,2,4,3,6,6,5,5,1,0,0,1,0,242,242,242,left,1,0.6779041000008874,None,,,,pil_002,001,0.9,1.0,2023-03-22_14h39.54.521,stress,2023.1.0,60.08903993905168,
1,4,3,0,2,5,4,6,5,3,0,0,0,1,1,1,0,243,243,243,up,1,2.03951380000035,None,,,,pil_002,001,0.9,1.0,2023-03-22_14h39.54.521,stress,2023.1.0,60.08903993905168,
3,2,5,1,4,0,4,3,3,0,6,6,1,1,0,1,0,244,244,244,left,1,3.475501000000804,None,,,,pil_002,001,0.9,1.0,2023-03-22_14h39.54.521,stress,2023.1.0,60.08903993905168,
1,3,4,0,2,5,4,6,5,6,3,3,1,1,1,1,0,245,245,245,up,1,3.1909336000007897,None,,,,pil_002,001,0.9,1.0,2023-03-22_14h39.54.521,stress,2023.1.0,60.08903993905168,
1,2,4,3,0,5,4,5,3,5,0,6,1,1,1,1,0,246,246,246,up,1,0.8482363999992231,None,,,,pil_002,001,0.9,1.0,2023-03-22_14h39.54.521,stress,2023.1.0,60.08903993905168,
5,3,0,4,2,1,4,6,0,3,5,5,1,0,1,1,0,247,247,247,up,1,1.5497945999995864,None,,,,pil_002,001,0.9,1.0,2023-03-22_14h39.54.521,stress,2023.1.0,60.08903993905168,
3,5,1,0,4,2,4,3,0,5,3,6,1,1,0,1,0,248,248,248,left,1,1.327750999998898,None,,,,pil_002,001,0.9,1.0,2023-03-22_14h39.54.521,stress,2023.1.0,60.08903993905168,
3,1,4,5,0,2,4,3,0,0,6,6,1,0,1,1,0,249,249,249,up,1,0.7410146000001987,None,,,,pil_002,001,0.9,1.0,2023-03-22_14h39.54.521,stress,2023.1.0,60.08903993905168,
1,3,4,2,0,5,4,5,6,3,5,3,0,1,0,1,0,250,250,250,left,1,2.4018090999998094,None,,,,pil_002,001,0.9,1.0,2023-03-22_14h39.54.521,stress,2023.1.0,60.08903993905168,
1,4,5,2,0,3,4,5,6,6,3,3,1,1,1,1,0,251,251,251,up,1,1.3062143000006472,None,,,,pil_002,001,0.9,1.0,2023-03-22_14h39.54.521,stress,2023.1.0,60.08903993905168,
0,4,5,3,1,2,4,0,3,5,0,3,1,1,1,1,0,252,252,252,up,1,1.3481611000006524,None,,,,pil_002,001,0.9,1.0,2023-03-22_14h39.54.521,stress,2023.1.0,60.08903993905168,
4,0,1,2,5,3,4,3,0,5,6,6,1,1,0,1,0,253,253,253,left,1,1.578751499999271,None,,,,pil_002,001,0.9,1.0,2023-03-22_14h39.54.521,stress,2023.1.0,60.08903993905168,
5,0,3,2,1,4,4,6,6,5,3,0,1,0,0,1,0,254,254,254,left,1,2.1655534000001353,None,,,,pil_002,001,0.9,1.0,2023-03-22_14h39.54.521,stress,2023.1.0,60.08903993905168,
4,1,3,5,0,2,4,0,5,5,6,3,1,1,1,1,0,255,255,255,up,1,1.5404838000013115,None,,,,pil_002,001,0.9,1.0,2023-03-22_14h39.54.521,stress,2023.1.0,60.08903993905168,
4,0,5,2,3,1,4,6,0,5,3,0,1,0,0,1,0,256,256,256,left,1,0.8347649999996065,None,,,,pil_002,001,0.9,1.0,2023-03-22_14h39.54.521,stress,2023.1.0,60.08903993905168,
4,2,1,3,0,5,4,6,0,3,0,5,1,0,1,1,0,257,257,257,up,1,1.1712448999987828,None,,,,pil_002,001,0.9,1.0,2023-03-22_14h39.54.521,stress,2023.1.0,60.08903993905168,
0,3,5,4,2,1,4,5,6,0,3,5,1,1,0,1,0,258,258,258,left,1,1.0247804999999062,None,,,,pil_002,001,0.9,1.0,2023-03-22_14h39.54.521,stress,2023.1.0,60.08903993905168,
4,1,2,3,5,0,4,0,3,5,5,6,1,1,1,1,0,259,259,259,up,1,0.9746809999996913,None,,,,pil_002,001,0.9,1.0,2023-03-22_14h39.54.521,stress,2023.1.0,60.08903993905168,
2,0,4,1,5,3,4,0,5,3,6,6,1,0,0,1,0,260,260,260,left,1,1.1101746999993338,None,,,,pil_002,001,0.9,1.0,2023-03-22_14h39.54.521,stress,2023.1.0,60.08903993905168,
4,5,0,2,1,3,4,3,6,0,6,5,1,0,0,1,0,261,261,261,left,1,0.8064183999995294,None,,,,pil_002,001,0.9,1.0,2023-03-22_14h39.54.521,stress,2023.1.0,60.08903993905168,
4,3,2,5,0,1,4,0,5,6,0,3,1,0,0,1,0,262,262,262,left,1,0.771770800000013,None,,,,pil_002,001,0.9,1.0,2023-03-22_14h39.54.521,stress,2023.1.0,60.08903993905168,
2,0,1,3,5,4,4,6,3,5,3,0,1,1,1,1,0,263,263,263,up,1,1.8164514000000054,None,,,,pil_002,001,0.9,1.0,2023-03-22_14h39.54.521,stress,2023.1.0,60.08903993905168,
2,4,5,0,3,1,4,3,6,5,0,3,1,0,1,1,0,264,264,264,up,1,1.4897971999998845,None,,,,pil_002,001,0.9,1.0,2023-03-22_14h39.54.521,stress,2023.1.0,60.08903993905168,
3,1,0,4,5,2,4,0,6,5,3,3,1,0,1,1,0,265,265,265,up,1,1.0245359999989887,None,,,,pil_002,001,0.9,1.0,2023-03-22_14h39.54.521,stress,2023.1.0,60.08903993905168,
5,2,4,3,1,0,4,6,5,0,0,3,1,1,0,1,0,266,266,266,left,1,2.3052453999989666,None,,,,pil_002,001,0.9,1.0,2023-03-22_14h39.54.521,stress,2023.1.0,60.08903993905168,
5,0,2,4,3,1,4,0,0,3,5,3,1,1,0,1,0,267,267,267,left,1,0.7173249000006763,None,,,,pil_002,001,0.9,1.0,2023-03-22_14h39.54.521,stress,2023.1.0,60.08903993905168,
4,0,2,3,5,1,4,5,0,3,5,6,1,1,1,1,0,268,268,268,up,1,0.8996208000007755,None,,,,pil_002,001,0.9,1.0,2023-03-22_14h39.54.521,stress,2023.1.0,60.08903993905168,
3,2,0,5,1,4,4,0,3,3,6,0,1,0,0,1,0,269,269,269,left,1,0.9349315999988903,None,,,,pil_002,001,0.9,1.0,2023-03-22_14h39.54.521,stress,2023.1.0,60.08903993905168,
2,5,0,3,1,4,4,5,6,6,3,3,1,1,0,1,0,270,270,270,left,1,2.49861779999992,None,,,,pil_002,001,0.9,1.0,2023-03-22_14h39.54.521,stress,2023.1.0,60.08903993905168,
3,5,0,1,4,2,4,6,3,3,5,0,1,1,0,1,0,271,271,271,up,0,0.696195099999386,None,,,,pil_002,001,0.9,1.0,2023-03-22_14h39.54.521,stress,2023.1.0,60.08903993905168,
5,4,0,3,2,1,4,6,0,3,6,5,1,1,1,1,0,272,272,272,up,1,1.2367322999998578,None,,,,pil_002,001,0.9,1.0,2023-03-22_14h39.54.521,stress,2023.1.0,60.08903993905168,
3,0,2,1,4,5,4,3,6,5,3,5,1,1,0,1,0,273,273,273,left,1,0.9986813999985316,None,,,,pil_002,001,0.9,1.0,2023-03-22_14h39.54.521,stress,2023.1.0,60.08903993905168,
4,0,2,5,3,1,4,5,6,6,0,0,1,0,0,1,0,274,274,274,left,1,0.6774255000000267,None,,,,pil_002,001,0.9,1.0,2023-03-22_14h39.54.521,stress,2023.1.0,60.08903993905168,
0,4,3,2,1,5,4,3,0,6,3,0,1,0,0,1,0,275,275,275,left,1,1.6100539999988541,None,,,,pil_002,001,0.9,1.0,2023-03-22_14h39.54.521,stress,2023.1.0,60.08903993905168,
3,2,1,4,0,5,4,5,6,3,6,3,0,1,0,1,0,276,276,276,left,1,1.2959692999993422,None,,,,pil_002,001,0.9,1.0,2023-03-22_14h39.54.521,stress,2023.1.0,60.08903993905168,
5,2,4,1,3,0,4,6,0,0,6,3,1,1,0,1,0,277,277,277,left,1,0.903068900001017,None,,,,pil_002,001,0.9,1.0,2023-03-22_14h39.54.521,stress,2023.1.0,60.08903993905168,
1,3,2,0,4,5,4,0,5,0,3,6,1,1,1,1,0,278,278,278,up,1,1.5914206000015838,None,,,,pil_002,001,0.9,1.0,2023-03-22_14h39.54.521,stress,2023.1.0,60.08903993905168,
0,5,3,1,2,4,4,6,0,6,3,5,0,0,0,1,0,279,279,279,left,1,0.6356777000000875,space,1.2517145999991044,,,pil_002,001,0.9,1.0,2023-03-22_14h39.54.521,stress,2023.1.0,60.08903993905168,
1,3,4,2,5,0,4,6,3,5,0,3,0,1,1,1,0,280,280,280,up,1,0.9054851000000781,None,,,,pil_002,001,0.9,1.0,2023-03-22_14h39.54.521,stress,2023.1.0,60.08903993905168,
4,3,1,0,2,5,4,3,0,5,6,5,1,1,1,1,0,281,281,281,up,1,0.40362009999989823,None,,,,pil_002,001,0.9,1.0,2023-03-22_14h39.54.521,stress,2023.1.0,60.08903993905168,
5,2,4,0,3,1,4,5,3,6,6,0,1,0,0,1,0,282,282,282,left,1,2.43556290000015,None,,,,pil_002,001,0.9,1.0,2023-03-22_14h39.54.521,stress,2023.1.0,60.08903993905168,
2,3,1,0,5,4,4,5,5,3,0,0,1,0,1,1,0,283,283,283,up,1,1.4680398000000423,None,,,,pil_002,001,0.9,1.0,2023-03-22_14h39.54.521,stress,2023.1.0,60.08903993905168,
3,2,1,5,0,4,4,5,3,6,0,0,1,1,0,1,0,284,284,284,left,1,1.040854599999875,None,,,,pil_002,001,0.9,1.0,2023-03-22_14h39.54.521,stress,2023.1.0,60.08903993905168,
2,4,5,0,3,1,4,0,6,6,3,5,1,1,0,1,0,285,285,285,left,1,1.1236573999995016,None,,,,pil_002,001,0.9,1.0,2023-03-22_14h39.54.521,stress,2023.1.0,60.08903993905168,
2,1,4,5,3,0,4,5,6,0,3,3,1,0,0,1,0,286,286,286,left,1,1.7686986000007892,None,,,,pil_002,001,0.9,1.0,2023-03-22_14h39.54.521,stress,2023.1.0,60.08903993905168,
2,0,3,5,1,4,4,5,5,3,3,0,1,1,1,1,0,287,287,287,up,1,1.2587831000000733,None,,,,pil_002,001,0.9,1.0,2023-03-22_14h39.54.521,stress,2023.1.0,60.08903993905168,
4,2,5,0,1,3,4,3,0,6,6,5,1,0,0,1,0,288,288,288,left,1,0.686622900000657,None,,,,pil_002,001,0.9,1.0,2023-03-22_14h39.54.521,stress,2023.1.0,60.08903993905168,
0,2,4,1,5,3,4,6,3,0,5,6,1,1,1,1,0,289,289,289,up,1,0.9817096999995556,None,,,,pil_002,001,0.9,1.0,2023-03-22_14h39.54.521,stress,2023.1.0,60.08903993905168,
4,0,2,3,5,1,4,5,0,6,6,3,0,1,0,1,0,290,290,290,left,1,1.6732475999997405,None,,,,pil_002,001,0.9,1.0,2023-03-22_14h39.54.521,stress,2023.1.0,60.08903993905168,
2,5,0,1,3,4,4,0,6,0,3,6,1,1,0,1,0,291,291,291,left,1,1.0685331000004226,None,,,,pil_002,001,0.9,1.0,2023-03-22_14h39.54.521,stress,2023.1.0,60.08903993905168,
0,3,1,2,5,4,4,3,3,0,6,0,1,1,0,1,0,292,292,292,left,1,1.2419310999994195,None,,,,pil_002,001,0.9,1.0,2023-03-22_14h39.54.521,stress,2023.1.0,60.08903993905168,
0,4,3,5,2,1,4,6,3,0,5,5,1,1,0,1,0,293,293,293,left,1,1.1447982999998203,None,,,,pil_002,001,0.9,1.0,2023-03-22_14h39.54.521,stress,2023.1.0,60.08903993905168,
2,5,1,0,3,4,4,0,6,0,3,5,1,1,0,1,0,294,294,294,left,1,1.5619262000000163,None,,,,pil_002,001,0.9,1.0,2023-03-22_14h39.54.521,stress,2023.1.0,60.08903993905168,
5,1,2,0,4,3,4,0,0,6,5,5,0,1,1,1,0,295,295,295,up,1,1.8770144000009168,None,,,,pil_002,001,0.9,1.0,2023-03-22_14h39.54.521,stress,2023.1.0,60.08903993905168,
5,0,3,2,1,4,4,5,6,3,6,0,1,1,0,1,0,296,296,296,left,1,0.5672101999989536,None,,,,pil_002,001,0.9,1.0,2023-03-22_14h39.54.521,stress,2023.1.0,60.08903993905168,
2,1,3,0,4,5,4,6,5,3,0,5,1,1,1,1,0,297,297,297,up,1,0.9881700000005367,None,,,,pil_002,001,0.9,1.0,2023-03-22_14h39.54.521,stress,2023.1.0,60.08903993905168,
2,3,0,4,1,5,4,3,5,6,6,0,1,1,0,1,0,298,298,298,left,1,1.0978217000010773,None,,,,pil_002,001,0.9,1.0,2023-03-22_14h39.54.521,stress,2023.1.0,60.08903993905168,
0,1,2,3,5,4,4,3,6,6,3,5,1,0,1,1,0,299,299,299,up,1,1.521699400000216,None,,,,pil_002,001,0.9,1.0,2023-03-22_14h39.54.521,stress,2023.1.0,60.08903993905168,
3,2,1,0,5,4,4,3,6,6,0,0,0,0,1,1,0,300,300,300,up,1,0.7578696000000491,None,,,,pil_002,001,0.9,1.0,2023-03-22_14h39.54.521,stress,2023.1.0,60.08903993905168,
0,5,2,4,1,3,4,0,6,0,5,3,1,0,0,1,0,301,301,301,left,1,1.219198900000265,None,,,,pil_002,001,0.9,1.0,2023-03-22_14h39.54.521,stress,2023.1.0,60.08903993905168,
0,5,3,4,2,1,4,5,0,6,6,0,1,0,1,1,0,302,302,302,up,1,1.3489810999999463,None,,,,pil_002,001,0.9,1.0,2023-03-22_14h39.54.521,stress,2023.1.0,60.08903993905168,
0,4,2,1,5,3,4,6,5,3,6,3,1,0,1,1,0,303,303,303,up,1,0.6819926999996824,None,,,,pil_002,001,0.9,1.0,2023-03-22_14h39.54.521,stress,2023.1.0,60.08903993905168,
4,3,5,2,1,0,4,5,0,3,0,3,1,0,0,1,0,304,304,304,left,1,0.782273200000418,None,,,,pil_002,001,0.9,1.0,2023-03-22_14h39.54.521,stress,2023.1.0,60.08903993905168,
0,3,5,1,2,4,4,0,6,5,5,3,1,0,1,1,0,305,305,305,up,1,0.9164474999997765,None,,,,pil_002,001,0.9,1.0,2023-03-22_14h39.54.521,stress,2023.1.0,60.08903993905168,
1,3,2,4,5,0,4,0,5,3,5,3,1,1,1,1,0,306,306,306,up,1,1.7100792999990517,None,,,,pil_002,001,0.9,1.0,2023-03-22_14h39.54.521,stress,2023.1.0,60.08903993905168,
0,3,4,5,1,2,4,5,3,5,6,3,1,0,0,1,0,307,307,307,left,1,1.3253597999992053,None,,,,pil_002,001,0.9,1.0,2023-03-22_14h39.54.521,stress,2023.1.0,60.08903993905168,
3,0,5,4,1,2,4,0,5,3,5,6,1,1,0,1,0,308,308,308,left,1,1.0878293000005215,None,,,,pil_002,001,0.9,1.0,2023-03-22_14h39.54.521,stress,2023.1.0,60.08903993905168,
5,0,2,1,3,4,4,0,6,5,3,5,1,1,0,1,0,309,309,309,left,1,1.4255474000001414,None,,,,pil_002,001,0.9,1.0,2023-03-22_14h39.54.521,stress,2023.1.0,60.08903993905168,
0,3,4,1,2,5,4,6,3,0,6,5,1,0,0,1,0,310,310,310,left,1,1.3015928999993776,None,,,,pil_002,001,0.9,1.0,2023-03-22_14h39.54.521,stress,2023.1.0,60.08903993905168,
3,4,1,2,5,0,4,0,0,5,6,5,1,0,1,1,0,311,311,311,up,1,0.5951483999997436,None,,,,pil_002,001,0.9,1.0,2023-03-22_14h39.54.521,stress,2023.1.0,60.08903993905168,
3,0,5,1,4,2,4,3,0,5,0,6,1,0,1,1,0,312,312,312,up,1,0.5414674999992712,None,,,,pil_002,001,0.9,1.0,2023-03-22_14h39.54.521,stress,2023.1.0,60.08903993905168,
1,3,0,2,5,4,4,3,3,6,6,5,1,1,0,1,0,313,313,313,up,0,1.01191960000142,None,,,,pil_002,001,0.9,1.0,2023-03-22_14h39.54.521,stress,2023.1.0,60.08903993905168,
3,4,0,2,1,5,4,3,6,3,5,6,1,0,0,1,0,314,314,314,left,1,1.7595958999991126,None,,,,pil_002,001,0.9,1.0,2023-03-22_14h39.54.521,stress,2023.1.0,60.08903993905168,
0,4,1,3,2,5,4,0,3,0,6,3,1,0,1,1,0,315,315,315,left,0,2.1081670000003214,None,,,,pil_002,001,0.9,1.0,2023-03-22_14h39.54.521,stress,2023.1.0,60.08903993905168,
0,5,2,3,1,4,4,5,0,0,3,3,1,1,1,1,0,316,316,316,up,1,0.5342806999997265,None,,,,pil_002,001,0.9,1.0,2023-03-22_14h39.54.521,stress,2023.1.0,60.08903993905168,
2,1,3,4,5,0,4,3,3,0,5,5,0,0,0,1,0,317,317,317,left,1,1.4974823000011384,None,,,,pil_002,001,0.9,1.0,2023-03-22_14h39.54.521,stress,2023.1.0,60.08903993905168,
0,1,3,2,4,5,4,5,6,0,3,3,1,0,1,1,0,318,318,318,up,1,0.9909274999990885,None,,,,pil_002,001,0.9,1.0,2023-03-22_14h39.54.521,stress,2023.1.0,60.08903993905168,
1,0,2,4,3,5,4,6,0,0,6,3,1,0,0,1,0,319,319,319,left,1,1.433428999998796,space,1.9831338000003598,,,pil_002,001,0.9,1.0,2023-03-22_14h39.54.521,stress,2023.1.0,60.08903993905168,
4,3,5,0,1,2,4,6,0,3,5,3,1,0,0,1,0,320,320,320,up,0,0.9852765999985422,None,,,,pil_002,001,0.9,1.0,2023-03-22_14h39.54.521,stress,2023.1.0,60.08903993905168,
1,2,5,0,3,4,4,6,3,0,6,0,1,0,1,1,0,321,321,321,up,1,0.9652578000004723,None,,,,pil_002,001,0.9,1.0,2023-03-22_14h39.54.521,stress,2023.1.0,60.08903993905168,
5,3,2,1,0,4,4,5,0,5,0,3,1,0,1,1,0,322,322,322,up,1,0.5772114999999758,None,,,,pil_002,001,0.9,1.0,2023-03-22_14h39.54.521,stress,2023.1.0,60.08903993905168,
3,0,2,1,5,4,4,6,3,0,0,6,0,0,1,1,0,323,323,323,up,1,2.528817500000514,None,,,,pil_002,001,0.9,1.0,2023-03-22_14h39.54.521,stress,2023.1.0,60.08903993905168,
3,0,2,4,5,1,4,0,6,0,3,3,1,0,0,1,0,324,324,324,left,1,0.7645277999999962,None,,,,pil_002,001,0.9,1.0,2023-03-22_14h39.54.521,stress,2023.1.0,60.08903993905168,
2,0,5,3,1,4,4,6,6,5,3,0,1,1,1,1,0,325,325,325,up,1,1.680371100001139,None,,,,pil_002,001,0.9,1.0,2023-03-22_14h39.54.521,stress,2023.1.0,60.08903993905168,
2,4,3,1,5,0,4,6,0,3,3,5,1,0,0,1,0,326,326,326,left,1,1.4062005999985558,None,,,,pil_002,001,0.9,1.0,2023-03-22_14h39.54.521,stress,2023.1.0,60.08903993905168,
5,3,2,0,4,1,4,6,3,5,3,6,0,0,0,1,0,327,327,327,left,1,0.8243681999992987,None,,,,pil_002,001,0.9,1.0,2023-03-22_14h39.54.521,stress,2023.1.0,60.08903993905168,
3,1,0,4,5,2,4,3,6,5,0,5,1,0,0,1,0,328,328,328,left,1,1.1785003000004508,None,,,,pil_002,001,0.9,1.0,2023-03-22_14h39.54.521,stress,2023.1.0,60.08903993905168,
1,2,0,5,3,4,4,0,6,5,6,5,1,0,1,1,0,329,329,329,up,1,0.9694181000013486,None,,,,pil_002,001,0.9,1.0,2023-03-22_14h39.54.521,stress,2023.1.0,60.08903993905168,
0,4,1,2,5,3,4,5,3,6,6,3,1,1,1,1,0,330,330,330,up,1,1.195682499999748,None,,,,pil_002,001,0.9,1.0,2023-03-22_14h39.54.521,stress,2023.1.0,60.08903993905168,
3,2,0,1,4,5,4,0,6,5,3,6,1,1,1,1,0,331,331,331,up,1,1.2661391999990883,None,,,,pil_002,001,0.9,1.0,2023-03-22_14h39.54.521,stress,2023.1.0,60.08903993905168,
0,5,3,4,2,1,4,3,0,5,6,0,1,1,0,1,0,332,332,332,left,1,1.2452391000006173,None,,,,pil_002,001,0.9,1.0,2023-03-22_14h39.54.521,stress,2023.1.0,60.08903993905168,
1,5,3,2,4,0,4,5,5,3,3,0,1,1,1,1,0,333,333,333,up,1,0.9432365000011487,None,,,,pil_002,001,0.9,1.0,2023-03-22_14h39.54.521,stress,2023.1.0,60.08903993905168,
3,2,0,1,4,5,4,0,5,0,5,6,1,0,1,1,0,334,334,334,up,1,0.8699024999987159,None,,,,pil_002,001,0.9,1.0,2023-03-22_14h39.54.521,stress,2023.1.0,60.08903993905168,
1,2,0,5,3,4,4,6,0,3,3,5,1,0,1,1,0,335,335,335,up,1,1.3622809999997116,None,,,,pil_002,001,0.9,1.0,2023-03-22_14h39.54.521,stress,2023.1.0,60.08903993905168,
4,0,1,5,3,2,4,0,3,3,5,6,1,0,0,1,0,336,336,336,left,1,1.1807361000010133,None,,,,pil_002,001,0.9,1.0,2023-03-22_14h39.54.521,stress,2023.1.0,60.08903993905168,
3,2,5,0,4,1,4,6,3,3,0,5,0,0,1,1,0,337,337,337,up,1,1.2465768000001844,None,,,,pil_002,001,0.9,1.0,2023-03-22_14h39.54.521,stress,2023.1.0,60.08903993905168,
4,5,1,0,3,2,4,6,3,5,0,5,1,0,1,1,0,338,338,338,up,1,1.1162042999985715,None,,,,pil_002,001,0.9,1.0,2023-03-22_14h39.54.521,stress,2023.1.0,60.08903993905168,
2,0,3,5,4,1,4,5,5,6,0,0,1,0,1,1,0,339,339,339,up,1,0.9326106999997137,None,,,,pil_002,001,0.9,1.0,2023-03-22_14h39.54.521,stress,2023.1.0,60.08903993905168,
5,2,0,1,4,3,4,5,6,6,5,0,1,0,0,1,0,340,340,340,left,1,0.7646041999996669,None,,,,pil_002,001,0.9,1.0,2023-03-22_14h39.54.521,stress,2023.1.0,60.08903993905168,
2,4,0,5,1,3,4,0,0,5,3,6,1,0,1,1,0,341,341,341,up,1,1.0479619999987335,None,,,,pil_002,001,0.9,1.0,2023-03-22_14h39.54.521,stress,2023.1.0,60.08903993905168,
0,2,5,4,1,3,4,6,6,3,3,5,1,0,0,1,0,342,342,342,left,1,1.009294100000261,None,,,,pil_002,001,0.9,1.0,2023-03-22_14h39.54.521,stress,2023.1.0,60.08903993905168,
5,1,2,3,0,4,4,5,6,5,0,6,1,1,1,1,0,343,343,343,up,1,0.6635974000000715,None,,,,pil_002,001,0.9,1.0,2023-03-22_14h39.54.521,stress,2023.1.0,60.08903993905168,
1,0,2,4,3,5,4,6,0,5,3,5,1,1,0,1,0,344,344,344,left,1,0.9235377000004519,None,,,,pil_002,001,0.9,1.0,2023-03-22_14h39.54.521,stress,2023.1.0,60.08903993905168,
3,1,0,4,2,5,4,5,6,0,3,5,0,1,1,1,0,345,345,345,up,1,0.6901818999995157,None,,,,pil_002,001,0.9,1.0,2023-03-22_14h39.54.521,stress,2023.1.0,60.08903993905168,
2,5,0,3,1,4,4,6,3,3,0,6,1,0,1,1,0,346,346,346,up,1,1.4366384999993898,None,,,,pil_002,001,0.9,1.0,2023-03-22_14h39.54.521,stress,2023.1.0,60.08903993905168,
3,5,2,1,4,0,4,3,5,3,0,0,1,1,0,1,0,347,347,347,left,1,0.7094288999996934,None,,,,pil_002,001,0.9,1.0,2023-03-22_14h39.54.521,stress,2023.1.0,60.08903993905168,
1,3,5,0,2,4,4,3,0,0,5,6,1,0,1,1,0,348,348,348,up,1,1.226736800001163,None,,,,pil_002,001,0.9,1.0,2023-03-22_14h39.54.521,stress,2023.1.0,60.08903993905168,
1,5,4,2,0,3,4,5,6,0,3,0,0,1,1,1,0,349,349,349,up,1,1.4281995999990613,None,,,,pil_002,001,0.9,1.0,2023-03-22_14h39.54.521,stress,2023.1.0,60.08903993905168,
1,2,5,0,4,3,4,0,6,3,6,0,1,1,1,1,0,350,350,350,up,1,0.8402495999998791,None,,,,pil_002,001,0.9,1.0,2023-03-22_14h39.54.521,stress,2023.1.0,60.08903993905168,
3,4,1,2,0,5,4,6,0,6,3,5,1,0,0,1,0,351,351,351,left,1,0.8244594000007055,None,,,,pil_002,001,0.9,1.0,2023-03-22_14h39.54.521,stress,2023.1.0,60.08903993905168,
4,0,3,2,1,5,4,3,0,6,0,5,1,0,0,1,0,352,352,352,left,1,3.0704502999997203,None,,,,pil_002,001,0.9,1.0,2023-03-22_14h39.54.521,stress,2023.1.0,60.08903993905168,
4,5,2,1,0,3,4,3,6,0,5,6,1,0,1,1,0,353,353,353,up,1,4.596770699999979,None,,,,pil_002,001,0.9,1.0,2023-03-22_14h39.54.521,stress,2023.1.0,60.08903993905168,
5,1,3,4,2,0,4,3,0,6,6,0,1,0,0,1,0,354,354,354,left,1,10.718452200000684,None,,,,pil_002,001,0.9,1.0,2023-03-22_14h39.54.521,stress,2023.1.0,60.08903993905168,
1,4,0,3,2,5,4,5,3,5,3,6,0,1,1,1,0,355,355,355,up,1,1.487278900000092,None,,,,pil_002,001,0.9,1.0,2023-03-22_14h39.54.521,stress,2023.1.0,60.08903993905168,
0,5,1,2,3,4,4,5,6,5,3,0,1,1,0,1,0,356,356,356,left,1,1.3467067000001407,None,,,,pil_002,001,0.9,1.0,2023-03-22_14h39.54.521,stress,2023.1.0,60.08903993905168,
0,4,2,1,3,5,4,3,6,5,3,0,1,1,0,1,0,357,357,357,left,1,0.5225028000004386,None,,,,pil_002,001,0.9,1.0,2023-03-22_14h39.54.521,stress,2023.1.0,60.08903993905168,
2,1,3,5,0,4,4,0,3,6,0,5,1,1,1,1,0,358,358,358,up,1,0.9028263000000152,None,,,,pil_002,001,0.9,1.0,2023-03-22_14h39.54.521,stress,2023.1.0,60.08903993905168,
5,4,0,3,1,2,4,3,5,5,6,3,1,1,1,1,0,359,359,359,up,1,0.6221158000007563,space,1.462785100000474,,,pil_002,001,0.9,1.0,2023-03-22_14h39.54.521,stress,2023.1.0,60.08903993905168,
2,1,4,3,5,0,4,3,5,0,5,6,1,1,1,1,0,360,360,360,up,1,1.1818423999993684,None,,,,pil_002,001,0.9,1.0,2023-03-22_14h39.54.521,stress,2023.1.0,60.08903993905168,
3,5,2,0,4,1,4,6,5,3,3,6,1,1,0,1,0,361,361,361,left,1,1.3362606000009691,None,,,,pil_002,001,0.9,1.0,2023-03-22_14h39.54.521,stress,2023.1.0,60.08903993905168,
3,0,2,1,5,4,4,5,0,3,3,6,1,0,0,1,0,362,362,362,left,1,1.5783093999998528,None,,,,pil_002,001,0.9,1.0,2023-03-22_14h39.54.521,stress,2023.1.0,60.08903993905168,
2,4,5,0,1,3,4,0,0,5,5,3,1,1,1,1,0,363,363,363,up,1,1.2705549000002065,None,,,,pil_002,001,0.9,1.0,2023-03-22_14h39.54.521,stress,2023.1.0,60.08903993905168,
2,1,4,0,3,5,4,5,6,6,0,3,1,0,1,1,0,364,364,364,up,1,1.2573790999995254,None,,,,pil_002,001,0.9,1.0,2023-03-22_14h39.54.521,stress,2023.1.0,60.08903993905168,
2,0,4,5,1,3,4,6,3,0,0,5,1,1,0,1,0,365,365,365,left,1,1.5553388999996969,None,,,,pil_002,001,0.9,1.0,2023-03-22_14h39.54.521,stress,2023.1.0,60.08903993905168,
2,1,3,4,0,5,4,6,3,0,6,3,0,0,1,1,0,366,366,366,up,1,1.5111014000012801,None,,,,pil_002,001,0.9,1.0,2023-03-22_14h39.54.521,stress,2023.1.0,60.08903993905168,
2,0,1,5,3,4,4,3,5,0,5,0,1,1,0,1,0,367,367,367,left,1,1.259555199998431,None,,,,pil_002,001,0.9,1.0,2023-03-22_14h39.54.521,stress,2023.1.0,60.08903993905168,
5,2,0,4,3,1,4,0,0,3,6,6,1,1,1,1,0,368,368,368,up,1,1.081705000000511,None,,,,pil_002,001,0.9,1.0,2023-03-22_14h39.54.521,stress,2023.1.0,60.08903993905168,
3,4,0,2,5,1,4,5,3,3,0,6,1,0,0,1,0,369,369,369,left,1,1.8619125000004715,None,,,,pil_002,001,0.9,1.0,2023-03-22_14h39.54.521,stress,2023.1.0,60.08903993905168,
4,3,5,1,0,2,4,5,0,3,6,6,1,1,0,1,0,370,370,370,left,1,2.091514499999903,None,,,,pil_002,001,0.9,1.0,2023-03-22_14h39.54.521,stress,2023.1.0,60.08903993905168,
4,0,5,1,3,2,4,6,3,3,0,6,1,0,1,1,0,371,371,371,up,1,0.6232287999991968,None,,,,pil_002,001,0.9,1.0,2023-03-22_14h39.54.521,stress,2023.1.0,60.08903993905168,
5,3,0,1,4,2,4,5,3,5,6,0,1,1,0,1,0,372,372,372,left,1,0.7068976999998995,None,,,,pil_002,001,0.9,1.0,2023-03-22_14h39.54.521,stress,2023.1.0,60.08903993905168,
0,2,3,1,5,4,4,3,0,0,5,3,1,1,0,1,0,373,373,373,left,1,0.7591984999999113,None,,,,pil_002,001,0.9,1.0,2023-03-22_14h39.54.521,stress,2023.1.0,60.08903993905168,
5,1,3,0,2,4,4,3,6,5,0,3,1,1,0,1,0,374,374,374,left,1,0.8311006999992969,None,,,,pil_002,001,0.9,1.0,2023-03-22_14h39.54.521,stress,2023.1.0,60.08903993905168,
4,1,5,3,0,2,4,3,0,5,6,3,1,0,1,1,0,375,375,375,up,1,0.6411810999998124,None,,,,pil_002,001,0.9,1.0,2023-03-22_14h39.54.521,stress,2023.1.0,60.08903993905168,
1,3,4,0,2,5,4,0,6,0,5,3,1,0,0,1,0,376,376,376,left,1,1.096157800000583,None,,,,pil_002,001,0.9,1.0,2023-03-22_14h39.54.521,stress,2023.1.0,60.08903993905168,
4,1,0,3,5,2,4,0,6,0,3,6,1,1,1,1,0,377,377,377,up,1,0.6215353999996296,None,,,,pil_002,001,0.9,1.0,2023-03-22_14h39.54.521,stress,2023.1.0,60.08903993905168,
5,0,1,3,2,4,4,5,0,6,5,3,1,1,0,1,0,378,378,378,left,1,0.8916377999994438,None,,,,pil_002,001,0.9,1.0,2023-03-22_14h39.54.521,stress,2023.1.0,60.08903993905168,
3,2,5,1,4,0,4,5,5,6,0,0,1,0,0,1,0,379,379,379,left,1,1.0022958999998082,None,,,,pil_002,001,0.9,1.0,2023-03-22_14h39.54.521,stress,2023.1.0,60.08903993905168,
1,0,5,2,3,4,4,5,6,3,0,0,1,1,0,1,0,380,380,380,left,1,1.4930348999987473,None,,,,pil_002,001,0.9,1.0,2023-03-22_14h39.54.521,stress,2023.1.0,60.08903993905168,
3,4,5,1,0,2,4,0,3,0,3,5,1,1,1,1,0,381,381,381,up,1,1.4070150000006834,None,,,,pil_002,001,0.9,1.0,2023-03-22_14h39.54.521,stress,2023.1.0,60.08903993905168,
3,2,5,4,1,0,4,0,0,5,6,3,1,0,0,1,0,382,382,382,left,1,0.62057090000053,None,,,,pil_002,001,0.9,1.0,2023-03-22_14h39.54.521,stress,2023.1.0,60.08903993905168,
4,0,5,2,3,1,4,0,6,6,3,3,1,0,0,1,0,383,383,383,up,0,1.2691532999997435,None,,,,pil_002,001,0.9,1.0,2023-03-22_14h39.54.521,stress,2023.1.0,60.08903993905168,
4,5,0,1,3,2,4,5,6,6,0,0,1,1,0,1,0,384,384,384,left,1,0.6413649999994959,None,,,,pil_002,001,0.9,1.0,2023-03-22_14h39.54.521,stress,2023.1.0,60.08903993905168,
3,0,2,1,5,4,4,3,0,5,0,3,1,0,1,1,0,385,385,385,up,1,0.7824371000006067,None,,,,pil_002,001,0.9,1.0,2023-03-22_14h39.54.521,stress,2023.1.0,60.08903993905168,
3,2,0,1,5,4,4,3,6,6,0,3,1,0,1,1,0,386,386,386,up,1,0.7740692000006675,None,,,,pil_002,001,0.9,1.0,2023-03-22_14h39.54.521,stress,2023.1.0,60.08903993905168,
5,2,4,3,0,1,4,3,0,3,5,6,1,0,1,1,0,387,387,387,up,1,0.8173676000005798,None,,,,pil_002,001,0.9,1.0,2023-03-22_14h39.54.521,stress,2023.1.0,60.08903993905168,
4,5,3,0,2,1,4,6,3,6,5,3,1,0,1,1,0,388,388,388,up,1,0.6266176999997697,None,,,,pil_002,001,0.9,1.0,2023-03-22_14h39.54.521,stress,2023.1.0,60.08903993905168,
4,3,0,5,2,1,4,5,6,5,0,3,0,0,0,1,0,389,389,389,left,1,1.8802582999996957,None,,,,pil_002,001,0.9,1.0,2023-03-22_14h39.54.521,stress,2023.1.0,60.08903993905168,
4,0,3,1,5,2,4,5,5,0,0,3,1,0,1,1,0,390,390,390,up,1,0.5575322000004235,None,,,,pil_002,001,0.9,1.0,2023-03-22_14h39.54.521,stress,2023.1.0,60.08903993905168,
0,4,1,5,3,2,4,5,0,3,3,6,1,0,1,1,0,391,391,391,up,1,1.1402379000010114,None,,,,pil_002,001,0.9,1.0,2023-03-22_14h39.54.521,stress,2023.1.0,60.08903993905168,
5,3,2,4,0,1,4,6,0,5,3,5,1,1,1,1,0,392,392,392,up,1,0.9375700999989931,None,,,,pil_002,001,0.9,1.0,2023-03-22_14h39.54.521,stress,2023.1.0,60.08903993905168,
5,3,0,2,4,1,4,6,5,0,3,5,1,0,0,1,0,393,393,393,left,1,0.9488344000001234,None,,,,pil_002,001,0.9,1.0,2023-03-22_14h39.54.521,stress,2023.1.0,60.08903993905168,
0,5,1,3,4,2,4,5,0,0,5,3,1,0,1,1,0,394,394,394,up,1,0.6098771999986639,None,,,,pil_002,001,0.9,1.0,2023-03-22_14h39.54.521,stress,2023.1.0,60.08903993905168,
2,1,5,0,3,4,4,3,3,6,0,6,0,0,0,1,0,395,395,395,left,1,1.5162543000005826,None,,,,pil_002,001,0.9,1.0,2023-03-22_14h39.54.521,stress,2023.1.0,60.08903993905168,
1,3,5,0,4,2,4,6,3,6,0,0,1,1,1,1,0,396,396,396,up,1,0.8434335999991163,None,,,,pil_002,001,0.9,1.0,2023-03-22_14h39.54.521,stress,2023.1.0,60.08903993905168,
1,3,5,0,4,2,4,6,5,6,0,5,1,1,0,1,0,397,397,397,left,1,1.1478872999996383,None,,,,pil_002,001,0.9,1.0,2023-03-22_14h39.54.521,stress,2023.1.0,60.08903993905168,
4,0,3,2,5,1,4,6,0,6,3,0,1,0,0,1,0,398,398,398,left,1,1.2767380999994202,None,,,,pil_002,001,0.9,1.0,2023-03-22_14h39.54.521,stress,2023.1.0,60.08903993905168,
5,2,0,4,3,1,4,3,6,0,0,3,1,1,1,1,0,399,399,399,up,1,0.7773450999993656,space,1.6290559000008216,,,pil_002,001,0.9,1.0,2023-03-22_14h39.54.521,stress,2023.1.0,60.08903993905168,
,,,,,,,,,,,,,,,,,,,,,,,,,space,35.33136689999992,pil_002,001,0.9,1.0,2023-03-22_14h39.54.521,stress,2023.1.0,60.08903993905168,
