pos1,pos2,pos3,pos4,pos5,pos6,shape1,shape2,shape3,shape4,shape5,shape6,singleton,target_color,target_orientation,cue_validity,trials.thisRepN,trials.thisTrialN,trials.thisN,trials.thisIndex,search_response.keys,search_response.corr,search_response.rt,key_block.keys,key_block.rt,end_key.keys,end_key.rt,participant,session,distractor_prevalence,validity,date,expName,psychopyVersion,frameRate,
0,1,5,2,3,4,4,3,0,6,6,3,0,0,0,1,0,0,0,0,left,1,0.8028604999999516,None,,,,pil_002,002,0.5,1.0,2023-03-22_15h08.01.318,stress,2023.1.0,60.00650470530375,
2,5,0,1,4,3,4,3,0,0,5,5,0,1,1,1,0,1,1,1,up,1,1.415536799999245,None,,,,pil_002,002,0.5,1.0,2023-03-22_15h08.01.318,stress,2023.1.0,60.00650470530375,
1,5,3,0,4,2,4,0,5,6,0,6,0,0,0,1,0,2,2,2,left,1,0.8874764000011055,None,,,,pil_002,002,0.5,1.0,2023-03-22_15h08.01.318,stress,2023.1.0,60.00650470530375,
0,2,1,4,5,3,4,3,5,6,6,0,0,0,0,1,0,3,3,3,left,1,0.81918769999902,None,,,,pil_002,002,0.5,1.0,2023-03-22_15h08.01.318,stress,2023.1.0,60.00650470530375,
2,0,1,3,5,4,4,0,0,6,3,3,1,0,0,1,0,4,4,4,left,1,0.9559623000004649,None,,,,pil_002,002,0.5,1.0,2023-03-22_15h08.01.318,stress,2023.1.0,60.00650470530375,
2,5,3,0,1,4,4,0,0,6,6,5,1,1,1,1,0,5,5,5,up,1,0.8539887999995699,None,,,,pil_002,002,0.5,1.0,2023-03-22_15h08.01.318,stress,2023.1.0,60.00650470530375,
1,0,2,4,3,5,4,5,3,6,0,3,0,0,1,1,0,6,6,6,up,1,1.283076900001106,None,,,,pil_002,002,0.5,1.0,2023-03-22_15h08.01.318,stress,2023.1.0,60.00650470530375,
3,2,5,1,4,0,4,5,6,3,0,6,0,1,1,1,0,7,7,7,up,1,0.6536713000004966,None,,,,pil_002,002,0.5,1.0,2023-03-22_15h08.01.318,stress,2023.1.0,60.00650470530375,
3,2,0,4,5,1,4,6,5,6,3,0,0,0,1,1,0,8,8,8,up,1,0.7698888999984774,None,,,,pil_002,002,0.5,1.0,2023-03-22_15h08.01.318,stress,2023.1.0,60.00650470530375,
0,3,5,1,4,2,4,0,0,6,5,3,1,0,0,1,0,9,9,9,left,1,1.160325599999851,None,,,,pil_002,002,0.5,1.0,2023-03-22_15h08.01.318,stress,2023.1.0,60.00650470530375,
2,3,1,4,0,5,4,3,6,5,0,3,0,1,0,1,0,10,10,10,left,1,1.7968430000000808,None,,,,pil_002,002,0.5,1.0,2023-03-22_15h08.01.318,stress,2023.1.0,60.00650470530375,
0,2,5,4,3,1,4,3,6,5,3,6,0,1,1,1,0,11,11,11,up,1,0.6091292999990401,None,,,,pil_002,002,0.5,1.0,2023-03-22_15h08.01.318,stress,2023.1.0,60.00650470530375,
4,1,0,3,5,2,4,3,5,3,6,6,0,1,1,1,0,12,12,12,up,1,1.5265070000004926,None,,,,pil_002,002,0.5,1.0,2023-03-22_15h08.01.318,stress,2023.1.0,60.00650470530375,
1,0,5,3,2,4,4,6,5,0,0,3,1,0,1,1,0,13,13,13,up,1,1.0190248999988398,None,,,,pil_002,002,0.5,1.0,2023-03-22_15h08.01.318,stress,2023.1.0,60.00650470530375,
5,0,2,3,4,1,4,3,6,3,0,5,0,0,0,1,0,14,14,14,left,1,1.4404137000001356,None,,,,pil_002,002,0.5,1.0,2023-03-22_15h08.01.318,stress,2023.1.0,60.00650470530375,
2,5,4,1,3,0,4,3,0,5,6,3,0,1,0,1,0,15,15,15,left,1,1.6765546999995422,None,,,,pil_002,002,0.5,1.0,2023-03-22_15h08.01.318,stress,2023.1.0,60.00650470530375,
2,3,1,4,0,5,4,5,6,3,0,5,0,1,0,1,0,16,16,16,left,1,1.3214036999997916,None,,,,pil_002,002,0.5,1.0,2023-03-22_15h08.01.318,stress,2023.1.0,60.00650470530375,
2,0,5,1,3,4,4,3,5,6,5,0,0,1,1,1,0,17,17,17,up,1,1.4535875000001397,None,,,,pil_002,002,0.5,1.0,2023-03-22_15h08.01.318,stress,2023.1.0,60.00650470530375,
3,4,1,2,0,5,4,6,3,5,0,6,1,0,0,1,0,18,18,18,left,1,0.8697587999995449,None,,,,pil_002,002,0.5,1.0,2023-03-22_15h08.01.318,stress,2023.1.0,60.00650470530375,
4,0,1,2,3,5,4,3,3,0,6,6,0,1,0,1,0,19,19,19,left,1,1.4749430000010761,None,,,,pil_002,002,0.5,1.0,2023-03-22_15h08.01.318,stress,2023.1.0,60.00650470530375,
0,3,5,4,1,2,4,0,5,0,3,5,1,1,0,1,0,20,20,20,left,1,1.958713699999862,None,,,,pil_002,002,0.5,1.0,2023-03-22_15h08.01.318,stress,2023.1.0,60.00650470530375,
2,5,1,0,4,3,4,3,6,3,5,0,1,0,1,1,0,21,21,21,up,1,4.5134259999995265,None,,,,pil_002,002,0.5,1.0,2023-03-22_15h08.01.318,stress,2023.1.0,60.00650470530375,
5,2,4,1,3,0,4,6,3,5,0,0,1,0,0,1,0,22,22,22,left,1,0.7493128999994951,None,,,,pil_002,002,0.5,1.0,2023-03-22_15h08.01.318,stress,2023.1.0,60.00650470530375,
2,4,0,3,1,5,4,5,5,3,0,6,0,1,1,1,0,23,23,23,up,1,1.2919328000007226,None,,,,pil_002,002,0.5,1.0,2023-03-22_15h08.01.318,stress,2023.1.0,60.00650470530375,
1,4,0,2,5,3,4,3,5,0,5,0,0,0,0,1,0,24,24,24,left,1,1.0977012000003015,None,,,,pil_002,002,0.5,1.0,2023-03-22_15h08.01.318,stress,2023.1.0,60.00650470530375,
0,3,2,4,5,1,4,5,0,3,0,3,0,1,0,1,0,25,25,25,left,1,1.249293499999112,None,,,,pil_002,002,0.5,1.0,2023-03-22_15h08.01.318,stress,2023.1.0,60.00650470530375,
4,2,3,5,0,1,4,3,6,0,5,5,1,1,1,1,0,26,26,26,up,1,0.903481000001193,None,,,,pil_002,002,0.5,1.0,2023-03-22_15h08.01.318,stress,2023.1.0,60.00650470530375,
0,4,1,2,5,3,4,3,5,6,3,0,0,0,1,1,0,27,27,27,up,1,0.5487026999999216,None,,,,pil_002,002,0.5,1.0,2023-03-22_15h08.01.318,stress,2023.1.0,60.00650470530375,
0,1,3,2,4,5,4,6,0,5,3,5,1,0,1,1,0,28,28,28,up,1,0.5237971000005928,None,,,,pil_002,002,0.5,1.0,2023-03-22_15h08.01.318,stress,2023.1.0,60.00650470530375,
4,3,0,1,5,2,4,3,6,0,5,0,1,0,1,1,0,29,29,29,up,1,0.9420909000000393,None,,,,pil_002,002,0.5,1.0,2023-03-22_15h08.01.318,stress,2023.1.0,60.00650470530375,
0,1,2,5,4,3,4,0,5,3,6,3,1,0,1,1,0,30,30,30,up,1,0.5854269999999815,None,,,,pil_002,002,0.5,1.0,2023-03-22_15h08.01.318,stress,2023.1.0,60.00650470530375,
0,5,1,3,4,2,4,5,3,3,0,5,1,1,0,1,0,31,31,31,left,1,1.1297035000006872,None,,,,pil_002,002,0.5,1.0,2023-03-22_15h08.01.318,stress,2023.1.0,60.00650470530375,
0,4,1,3,2,5,4,6,0,5,3,0,0,0,0,1,0,32,32,32,left,1,0.5918908000003285,None,,,,pil_002,002,0.5,1.0,2023-03-22_15h08.01.318,stress,2023.1.0,60.00650470530375,
5,4,3,0,2,1,4,5,3,6,3,0,0,1,0,1,0,33,33,33,left,1,0.6175540999993245,None,,,,pil_002,002,0.5,1.0,2023-03-22_15h08.01.318,stress,2023.1.0,60.00650470530375,
2,1,3,0,4,5,4,5,0,0,6,6,0,1,1,1,0,34,34,34,up,1,1.094998000000487,None,,,,pil_002,002,0.5,1.0,2023-03-22_15h08.01.318,stress,2023.1.0,60.00650470530375,
5,2,0,1,4,3,4,0,3,0,5,6,1,1,0,1,0,35,35,35,left,1,1.3618057999992743,None,,,,pil_002,002,0.5,1.0,2023-03-22_15h08.01.318,stress,2023.1.0,60.00650470530375,
0,3,1,5,2,4,4,0,6,6,0,3,0,0,0,1,0,36,36,36,left,1,0.8916829999998299,None,,,,pil_002,002,0.5,1.0,2023-03-22_15h08.01.318,stress,2023.1.0,60.00650470530375,
0,1,5,2,3,4,4,6,0,3,6,5,0,0,1,1,0,37,37,37,up,1,0.7394925999997213,None,,,,pil_002,002,0.5,1.0,2023-03-22_15h08.01.318,stress,2023.1.0,60.00650470530375,
3,1,2,0,4,5,4,6,3,5,6,0,0,1,0,1,0,38,38,38,left,1,1.147032599999875,None,,,,pil_002,002,0.5,1.0,2023-03-22_15h08.01.318,stress,2023.1.0,60.00650470530375,
0,3,1,5,4,2,4,3,5,0,6,6,0,1,0,1,0,39,39,39,left,1,0.9202055000005203,space,1.4286386999992828,,,pil_002,002,0.5,1.0,2023-03-22_15h08.01.318,stress,2023.1.0,60.00650470530375,
4,3,5,0,1,2,4,3,5,6,6,0,1,1,1,1,0,40,40,40,up,1,1.1177187000012054,None,,,,pil_002,002,0.5,1.0,2023-03-22_15h08.01.318,stress,2023.1.0,60.00650470530375,
2,1,0,5,3,4,4,6,0,5,3,0,1,0,0,1,0,41,41,41,left,1,2.138618699998915,None,,,,pil_002,002,0.5,1.0,2023-03-22_15h08.01.318,stress,2023.1.0,60.00650470530375,
1,0,3,2,5,4,4,3,6,0,5,6,0,0,1,1,0,42,42,42,up,1,1.4093421999987186,None,,,,pil_002,002,0.5,1.0,2023-03-22_15h08.01.318,stress,2023.1.0,60.00650470530375,
2,0,3,4,1,5,4,0,3,6,0,5,1,1,1,1,0,43,43,43,up,1,1.1091949000001478,None,,,,pil_002,002,0.5,1.0,2023-03-22_15h08.01.318,stress,2023.1.0,60.00650470530375,
5,3,2,0,1,4,4,5,0,6,0,3,1,1,0,1,0,44,44,44,left,1,0.570826399998623,None,,,,pil_002,002,0.5,1.0,2023-03-22_15h08.01.318,stress,2023.1.0,60.00650470530375,
1,4,5,0,3,2,4,3,0,5,3,0,0,0,0,1,0,45,45,45,left,1,1.2486265000006824,None,,,,pil_002,002,0.5,1.0,2023-03-22_15h08.01.318,stress,2023.1.0,60.00650470530375,
3,5,1,2,0,4,4,3,6,5,0,0,1,1,0,1,0,46,46,46,left,1,0.8605599000002258,None,,,,pil_002,002,0.5,1.0,2023-03-22_15h08.01.318,stress,2023.1.0,60.00650470530375,
1,4,3,0,5,2,4,3,5,0,5,6,1,0,1,1,0,47,47,47,up,1,1.5049922999987757,None,,,,pil_002,002,0.5,1.0,2023-03-22_15h08.01.318,stress,2023.1.0,60.00650470530375,
1,4,5,0,2,3,4,5,0,6,3,6,0,0,1,1,0,48,48,48,up,1,1.3776471000001038,None,,,,pil_002,002,0.5,1.0,2023-03-22_15h08.01.318,stress,2023.1.0,60.00650470530375,
2,4,5,0,3,1,4,3,5,5,6,0,0,1,0,1,0,49,49,49,left,1,1.1914368999987346,None,,,,pil_002,002,0.5,1.0,2023-03-22_15h08.01.318,stress,2023.1.0,60.00650470530375,
3,4,2,0,5,1,4,5,5,0,3,6,0,1,1,1,0,50,50,50,up,1,1.1062726000000112,None,,,,pil_002,002,0.5,1.0,2023-03-22_15h08.01.318,stress,2023.1.0,60.00650470530375,
3,2,1,5,4,0,4,6,0,5,3,3,1,1,0,1,0,51,51,51,left,1,1.523290300001463,None,,,,pil_002,002,0.5,1.0,2023-03-22_15h08.01.318,stress,2023.1.0,60.00650470530375,
5,1,0,3,4,2,4,0,5,5,3,0,1,0,1,1,0,52,52,52,up,1,0.6248513000009552,None,,,,pil_002,002,0.5,1.0,2023-03-22_15h08.01.318,stress,2023.1.0,60.00650470530375,
2,5,1,4,3,0,4,6,3,5,3,0,0,1,1,1,0,53,53,53,up,1,1.0837325000011333,None,,,,pil_002,002,0.5,1.0,2023-03-22_15h08.01.318,stress,2023.1.0,60.00650470530375,
4,2,5,1,3,0,4,0,0,5,6,5,1,1,0,1,0,54,54,54,left,1,1.021471299998666,None,,,,pil_002,002,0.5,1.0,2023-03-22_15h08.01.318,stress,2023.1.0,60.00650470530375,
3,5,4,1,2,0,4,5,0,5,3,6,1,1,0,1,0,55,55,55,left,1,0.8471819999995205,None,,,,pil_002,002,0.5,1.0,2023-03-22_15h08.01.318,stress,2023.1.0,60.00650470530375,
1,5,0,4,2,3,4,5,6,3,3,5,0,1,1,1,0,56,56,56,up,1,1.268062799999825,None,,,,pil_002,002,0.5,1.0,2023-03-22_15h08.01.318,stress,2023.1.0,60.00650470530375,
4,2,3,0,1,5,4,6,5,0,3,5,0,0,1,1,0,57,57,57,up,1,0.8489025999988371,None,,,,pil_002,002,0.5,1.0,2023-03-22_15h08.01.318,stress,2023.1.0,60.00650470530375,
0,1,2,3,5,4,4,5,6,3,0,5,1,0,1,1,0,58,58,58,up,1,1.182548599999791,None,,,,pil_002,002,0.5,1.0,2023-03-22_15h08.01.318,stress,2023.1.0,60.00650470530375,
2,0,3,1,5,4,4,5,3,0,3,6,1,1,0,1,0,59,59,59,left,1,1.2441870999991806,None,,,,pil_002,002,0.5,1.0,2023-03-22_15h08.01.318,stress,2023.1.0,60.00650470530375,
4,3,5,0,2,1,4,6,0,5,3,0,1,0,1,1,0,60,60,60,up,1,0.5070105000013427,None,,,,pil_002,002,0.5,1.0,2023-03-22_15h08.01.318,stress,2023.1.0,60.00650470530375,
3,0,1,5,4,2,4,0,3,3,5,6,1,0,1,1,0,61,61,61,up,1,0.7768378999990091,None,,,,pil_002,002,0.5,1.0,2023-03-22_15h08.01.318,stress,2023.1.0,60.00650470530375,
5,2,1,4,3,0,4,3,3,6,5,6,0,0,1,1,0,62,62,62,up,1,0.7806626000001415,None,,,,pil_002,002,0.5,1.0,2023-03-22_15h08.01.318,stress,2023.1.0,60.00650470530375,
5,2,3,0,4,1,4,3,0,5,5,0,0,1,0,1,0,63,63,63,left,1,1.2910910000009608,None,,,,pil_002,002,0.5,1.0,2023-03-22_15h08.01.318,stress,2023.1.0,60.00650470530375,
3,0,2,5,1,4,4,3,6,5,6,5,1,0,0,1,0,64,64,64,up,0,0.8617061000004469,None,,,,pil_002,002,0.5,1.0,2023-03-22_15h08.01.318,stress,2023.1.0,60.00650470530375,
4,3,2,1,5,0,4,5,3,6,0,3,0,1,1,1,0,65,65,65,up,1,0.7204426000007516,None,,,,pil_002,002,0.5,1.0,2023-03-22_15h08.01.318,stress,2023.1.0,60.00650470530375,
2,1,0,3,4,5,4,0,3,5,6,3,1,0,0,1,0,66,66,66,left,1,1.608880899999349,None,,,,pil_002,002,0.5,1.0,2023-03-22_15h08.01.318,stress,2023.1.0,60.00650470530375,
1,5,0,3,4,2,4,5,0,3,3,5,1,1,1,1,0,67,67,67,up,1,1.388562300000558,None,,,,pil_002,002,0.5,1.0,2023-03-22_15h08.01.318,stress,2023.1.0,60.00650470530375,
1,2,0,3,5,4,4,5,0,6,6,5,1,1,1,1,0,68,68,68,up,1,2.014487899999949,None,,,,pil_002,002,0.5,1.0,2023-03-22_15h08.01.318,stress,2023.1.0,60.00650470530375,
2,3,0,5,4,1,4,5,3,5,0,3,0,0,0,1,0,69,69,69,left,1,1.3736033000004682,None,,,,pil_002,002,0.5,1.0,2023-03-22_15h08.01.318,stress,2023.1.0,60.00650470530375,
4,2,5,1,0,3,4,0,3,6,0,6,1,1,0,1,0,70,70,70,left,1,0.5488182999997662,None,,,,pil_002,002,0.5,1.0,2023-03-22_15h08.01.318,stress,2023.1.0,60.00650470530375,
1,0,3,2,5,4,4,0,3,5,3,0,1,1,1,1,0,71,71,71,up,1,1.150285800000347,None,,,,pil_002,002,0.5,1.0,2023-03-22_15h08.01.318,stress,2023.1.0,60.00650470530375,
0,4,2,1,5,3,4,6,0,5,3,5,1,0,1,1,0,72,72,72,up,1,2.8258509000006597,None,,,,pil_002,002,0.5,1.0,2023-03-22_15h08.01.318,stress,2023.1.0,60.00650470530375,
2,5,4,3,0,1,4,6,0,3,5,0,1,0,1,1,0,73,73,73,up,1,1.2456817999991472,None,,,,pil_002,002,0.5,1.0,2023-03-22_15h08.01.318,stress,2023.1.0,60.00650470530375,
4,1,2,0,5,3,4,0,3,5,6,0,0,0,1,1,0,74,74,74,up,1,0.6545172999994975,None,,,,pil_002,002,0.5,1.0,2023-03-22_15h08.01.318,stress,2023.1.0,60.00650470530375,
5,0,4,1,2,3,4,6,5,3,0,6,1,0,0,1,0,75,75,75,left,1,0.7583001000002696,None,,,,pil_002,002,0.5,1.0,2023-03-22_15h08.01.318,stress,2023.1.0,60.00650470530375,
1,2,0,4,3,5,4,6,5,6,0,5,0,0,0,1,0,76,76,76,left,1,1.295564199999717,None,,,,pil_002,002,0.5,1.0,2023-03-22_15h08.01.318,stress,2023.1.0,60.00650470530375,
1,3,4,0,5,2,4,6,6,5,0,3,1,0,1,1,0,77,77,77,up,1,1.0243461999998544,None,,,,pil_002,002,0.5,1.0,2023-03-22_15h08.01.318,stress,2023.1.0,60.00650470530375,
0,1,3,5,2,4,4,6,3,6,5,0,1,1,1,1,0,78,78,78,up,1,0.9066523000001325,None,,,,pil_002,002,0.5,1.0,2023-03-22_15h08.01.318,stress,2023.1.0,60.00650470530375,
4,1,0,5,2,3,4,5,6,5,3,3,1,0,1,1,0,79,79,79,up,1,0.6066299000012805,space,1.1947775999997248,,,pil_002,002,0.5,1.0,2023-03-22_15h08.01.318,stress,2023.1.0,60.00650470530375,
4,0,5,1,3,2,4,6,0,5,5,3,0,0,1,1,0,80,80,80,up,1,1.0812760999997408,None,,,,pil_002,002,0.5,1.0,2023-03-22_15h08.01.318,stress,2023.1.0,60.00650470530375,
2,1,0,3,5,4,4,0,6,5,5,6,0,0,1,1,0,81,81,81,up,1,1.0910094999999274,None,,,,pil_002,002,0.5,1.0,2023-03-22_15h08.01.318,stress,2023.1.0,60.00650470530375,
0,4,2,5,1,3,4,6,5,3,6,3,1,0,0,1,0,82,82,82,left,1,1.4182521000002453,None,,,,pil_002,002,0.5,1.0,2023-03-22_15h08.01.318,stress,2023.1.0,60.00650470530375,
3,4,1,2,0,5,4,6,5,0,0,3,1,1,0,1,0,83,83,83,left,1,1.087343499999406,None,,,,pil_002,002,0.5,1.0,2023-03-22_15h08.01.318,stress,2023.1.0,60.00650470530375,
5,1,2,4,0,3,4,3,3,5,0,6,0,0,0,1,0,84,84,84,left,1,0.9547873000010441,None,,,,pil_002,002,0.5,1.0,2023-03-22_15h08.01.318,stress,2023.1.0,60.00650470530375,
5,2,4,3,1,0,4,0,0,3,6,6,0,1,1,1,0,85,85,85,up,1,1.3896139999997104,None,,,,pil_002,002,0.5,1.0,2023-03-22_15h08.01.318,stress,2023.1.0,60.00650470530375,
1,5,3,4,0,2,4,3,5,0,0,3,1,1,0,1,0,86,86,86,left,1,0.870557899999767,None,,,,pil_002,002,0.5,1.0,2023-03-22_15h08.01.318,stress,2023.1.0,60.00650470530375,
0,2,5,1,3,4,4,5,0,3,5,3,0,0,1,1,0,87,87,87,up,1,1.7557016999999178,None,,,,pil_002,002,0.5,1.0,2023-03-22_15h08.01.318,stress,2023.1.0,60.00650470530375,
4,5,1,2,0,3,4,3,0,5,5,6,0,0,1,1,0,88,88,88,up,1,0.6515046999993501,None,,,,pil_002,002,0.5,1.0,2023-03-22_15h08.01.318,stress,2023.1.0,60.00650470530375,
4,0,3,5,1,2,4,5,6,5,0,6,0,1,0,1,0,89,89,89,left,1,0.5765898999998171,None,,,,pil_002,002,0.5,1.0,2023-03-22_15h08.01.318,stress,2023.1.0,60.00650470530375,
2,4,0,1,5,3,4,0,5,6,3,0,0,0,0,1,0,90,90,90,left,1,1.3067305000004126,None,,,,pil_002,002,0.5,1.0,2023-03-22_15h08.01.318,stress,2023.1.0,60.00650470530375,
2,3,0,1,4,5,4,5,3,6,0,0,0,0,0,1,0,91,91,91,left,1,0.8736529999987397,None,,,,pil_002,002,0.5,1.0,2023-03-22_15h08.01.318,stress,2023.1.0,60.00650470530375,
0,4,1,3,2,5,4,0,3,5,0,6,0,0,1,1,0,92,92,92,up,1,0.927224600000045,None,,,,pil_002,002,0.5,1.0,2023-03-22_15h08.01.318,stress,2023.1.0,60.00650470530375,
1,5,3,0,2,4,4,3,3,6,0,0,1,1,1,1,0,93,93,93,up,1,0.9557175999998435,None,,,,pil_002,002,0.5,1.0,2023-03-22_15h08.01.318,stress,2023.1.0,60.00650470530375,
5,1,4,2,0,3,4,0,5,3,6,0,1,1,1,1,0,94,94,94,up,1,0.5712215999992623,None,,,,pil_002,002,0.5,1.0,2023-03-22_15h08.01.318,stress,2023.1.0,60.00650470530375,
0,3,5,1,2,4,4,6,6,3,0,3,0,0,1,1,0,95,95,95,up,1,1.1671600000008766,None,,,,pil_002,002,0.5,1.0,2023-03-22_15h08.01.318,stress,2023.1.0,60.00650470530375,
4,5,0,2,1,3,4,6,0,5,3,6,0,0,1,1,0,96,96,96,up,1,0.6543476999995619,None,,,,pil_002,002,0.5,1.0,2023-03-22_15h08.01.318,stress,2023.1.0,60.00650470530375,
3,1,2,4,5,0,4,0,6,0,6,3,0,0,0,1,0,97,97,97,left,1,1.0510482999998203,None,,,,pil_002,002,0.5,1.0,2023-03-22_15h08.01.318,stress,2023.1.0,60.00650470530375,
3,4,5,0,1,2,4,6,6,5,0,5,0,0,0,1,0,98,98,98,left,1,0.7417320000004111,None,,,,pil_002,002,0.5,1.0,2023-03-22_15h08.01.318,stress,2023.1.0,60.00650470530375,
0,2,1,3,5,4,4,6,0,5,6,3,0,1,0,1,0,99,99,99,up,0,0.8095599999996921,None,,,,pil_002,002,0.5,1.0,2023-03-22_15h08.01.318,stress,2023.1.0,60.00650470530375,
0,5,2,1,4,3,4,0,3,0,6,6,0,0,0,1,0,100,100,100,left,1,0.489293100001305,None,,,,pil_002,002,0.5,1.0,2023-03-22_15h08.01.318,stress,2023.1.0,60.00650470530375,
1,3,0,5,4,2,4,0,6,0,3,3,0,1,0,1,0,101,101,101,left,1,3.647056000001612,None,,,,pil_002,002,0.5,1.0,2023-03-22_15h08.01.318,stress,2023.1.0,60.00650470530375,
5,4,1,3,2,0,4,6,0,5,3,0,0,1,0,1,0,102,102,102,left,1,0.5793635999998514,None,,,,pil_002,002,0.5,1.0,2023-03-22_15h08.01.318,stress,2023.1.0,60.00650470530375,
3,1,2,4,5,0,4,3,0,6,5,5,1,0,1,1,0,103,103,103,up,1,0.9156555000008666,None,,,,pil_002,002,0.5,1.0,2023-03-22_15h08.01.318,stress,2023.1.0,60.00650470530375,
3,1,5,0,2,4,4,3,5,6,6,3,1,1,0,1,0,104,104,104,left,1,0.9225289999994857,None,,,,pil_002,002,0.5,1.0,2023-03-22_15h08.01.318,stress,2023.1.0,60.00650470530375,
1,2,3,0,5,4,4,0,5,6,5,3,1,1,0,1,0,105,105,105,left,1,0.9620789000000514,None,,,,pil_002,002,0.5,1.0,2023-03-22_15h08.01.318,stress,2023.1.0,60.00650470530375,
2,1,3,4,5,0,4,5,0,0,6,5,0,1,0,1,0,106,106,106,left,1,1.6989701999991667,None,,,,pil_002,002,0.5,1.0,2023-03-22_15h08.01.318,stress,2023.1.0,60.00650470530375,
4,0,5,1,3,2,4,0,6,6,3,5,1,1,1,1,0,107,107,107,up,1,1.6739254000003712,None,,,,pil_002,002,0.5,1.0,2023-03-22_15h08.01.318,stress,2023.1.0,60.00650470530375,
4,1,3,5,0,2,4,5,0,6,3,6,1,1,0,1,0,108,108,108,left,1,0.6392285000001721,None,,,,pil_002,002,0.5,1.0,2023-03-22_15h08.01.318,stress,2023.1.0,60.00650470530375,
5,4,0,1,2,3,4,3,3,0,5,6,0,1,1,1,0,109,109,109,up,1,1.0419196000002557,None,,,,pil_002,002,0.5,1.0,2023-03-22_15h08.01.318,stress,2023.1.0,60.00650470530375,
4,3,5,0,1,2,4,5,0,3,5,6,1,1,1,1,0,110,110,110,up,1,0.5082519999996293,None,,,,pil_002,002,0.5,1.0,2023-03-22_15h08.01.318,stress,2023.1.0,60.00650470530375,
2,3,4,5,0,1,4,6,3,3,6,0,1,1,1,1,0,111,111,111,up,1,1.2645785000004253,None,,,,pil_002,002,0.5,1.0,2023-03-22_15h08.01.318,stress,2023.1.0,60.00650470530375,
4,1,2,5,3,0,4,0,6,5,3,0,1,1,0,1,0,112,112,112,left,1,0.5263185000003432,None,,,,pil_002,002,0.5,1.0,2023-03-22_15h08.01.318,stress,2023.1.0,60.00650470530375,
0,3,2,5,4,1,4,6,5,3,5,0,1,0,0,1,0,113,113,113,left,1,1.0208867000001192,None,,,,pil_002,002,0.5,1.0,2023-03-22_15h08.01.318,stress,2023.1.0,60.00650470530375,
1,0,3,4,2,5,4,3,0,0,6,3,1,0,0,1,0,114,114,114,left,1,1.2361601000011433,None,,,,pil_002,002,0.5,1.0,2023-03-22_15h08.01.318,stress,2023.1.0,60.00650470530375,
5,0,3,4,2,1,4,0,5,0,6,6,0,0,0,1,0,115,115,115,left,1,1.8285835000006045,None,,,,pil_002,002,0.5,1.0,2023-03-22_15h08.01.318,stress,2023.1.0,60.00650470530375,
0,2,1,4,5,3,4,3,5,0,3,6,1,0,0,1,0,116,116,116,left,1,0.8594540000012785,None,,,,pil_002,002,0.5,1.0,2023-03-22_15h08.01.318,stress,2023.1.0,60.00650470530375,
2,0,5,3,1,4,4,0,5,3,6,3,0,0,0,1,0,117,117,117,left,1,1.0172208999993018,None,,,,pil_002,002,0.5,1.0,2023-03-22_15h08.01.318,stress,2023.1.0,60.00650470530375,
1,2,3,4,0,5,4,5,0,3,3,6,1,0,0,1,0,118,118,118,left,1,0.8507716000003711,None,,,,pil_002,002,0.5,1.0,2023-03-22_15h08.01.318,stress,2023.1.0,60.00650470530375,
3,1,2,5,0,4,4,6,5,0,6,3,1,1,0,1,0,119,119,119,left,1,0.7540687000000617,space,1.2254391000005853,,,pil_002,002,0.5,1.0,2023-03-22_15h08.01.318,stress,2023.1.0,60.00650470530375,
5,1,3,0,4,2,4,0,5,3,5,6,1,0,1,1,0,120,120,120,up,1,0.6233116000003065,None,,,,pil_002,002,0.5,1.0,2023-03-22_15h08.01.318,stress,2023.1.0,60.00650470530375,
1,0,2,4,3,5,4,5,3,3,0,6,1,0,1,1,0,121,121,121,up,1,1.601339500000904,None,,,,pil_002,002,0.5,1.0,2023-03-22_15h08.01.318,stress,2023.1.0,60.00650470530375,
0,4,1,5,2,3,4,3,3,5,5,6,1,1,0,1,0,122,122,122,left,1,1.3455600000015693,None,,,,pil_002,002,0.5,1.0,2023-03-22_15h08.01.318,stress,2023.1.0,60.00650470530375,
3,0,5,2,1,4,4,5,6,5,6,3,0,1,0,1,0,123,123,123,left,1,1.152366099999199,None,,,,pil_002,002,0.5,1.0,2023-03-22_15h08.01.318,stress,2023.1.0,60.00650470530375,
5,1,2,0,4,3,4,3,5,3,6,0,1,1,0,1,0,124,124,124,left,1,0.9123902000010276,None,,,,pil_002,002,0.5,1.0,2023-03-22_15h08.01.318,stress,2023.1.0,60.00650470530375,
1,5,3,4,0,2,4,5,5,3,3,0,1,1,1,1,0,125,125,125,up,1,1.2239303000005748,None,,,,pil_002,002,0.5,1.0,2023-03-22_15h08.01.318,stress,2023.1.0,60.00650470530375,
3,0,5,2,1,4,4,0,0,6,3,6,1,0,0,1,0,126,126,126,left,1,0.8969227999987197,None,,,,pil_002,002,0.5,1.0,2023-03-22_15h08.01.318,stress,2023.1.0,60.00650470530375,
0,5,4,2,1,3,4,3,6,3,6,5,0,1,0,1,0,127,127,127,up,0,0.997110899999825,None,,,,pil_002,002,0.5,1.0,2023-03-22_15h08.01.318,stress,2023.1.0,60.00650470530375,
0,4,5,1,3,2,4,0,6,5,3,6,1,1,1,1,0,128,128,128,up,1,0.9381594000005862,None,,,,pil_002,002,0.5,1.0,2023-03-22_15h08.01.318,stress,2023.1.0,60.00650470530375,
5,3,0,1,2,4,4,5,6,0,0,6,1,0,0,1,0,129,129,129,left,1,0.6038568999993004,None,,,,pil_002,002,0.5,1.0,2023-03-22_15h08.01.318,stress,2023.1.0,60.00650470530375,
0,1,3,4,2,5,4,5,6,3,0,3,0,1,1,1,0,130,130,130,up,1,2.0260261000003084,None,,,,pil_002,002,0.5,1.0,2023-03-22_15h08.01.318,stress,2023.1.0,60.00650470530375,
4,5,0,2,1,3,4,0,6,3,0,5,1,0,0,1,0,131,131,131,left,1,0.46726420000049984,None,,,,pil_002,002,0.5,1.0,2023-03-22_15h08.01.318,stress,2023.1.0,60.00650470530375,
3,1,4,2,0,5,4,3,3,0,0,5,1,1,0,1,0,132,132,132,left,1,0.9970623000008345,None,,,,pil_002,002,0.5,1.0,2023-03-22_15h08.01.318,stress,2023.1.0,60.00650470530375,
2,5,1,4,0,3,4,5,0,5,3,3,1,1,0,1,0,133,133,133,left,1,0.7807840999994369,None,,,,pil_002,002,0.5,1.0,2023-03-22_15h08.01.318,stress,2023.1.0,60.00650470530375,
3,0,1,4,5,2,4,6,3,3,6,5,1,1,0,1,0,134,134,134,left,1,1.7851793999998335,None,,,,pil_002,002,0.5,1.0,2023-03-22_15h08.01.318,stress,2023.1.0,60.00650470530375,
1,0,3,4,5,2,4,3,5,6,0,5,0,0,0,1,0,135,135,135,left,1,0.9738962999999785,None,,,,pil_002,002,0.5,1.0,2023-03-22_15h08.01.318,stress,2023.1.0,60.00650470530375,
5,4,1,3,2,0,4,0,3,5,5,6,0,0,0,1,0,136,136,136,left,1,0.6825336999991123,None,,,,pil_002,002,0.5,1.0,2023-03-22_15h08.01.318,stress,2023.1.0,60.00650470530375,
5,3,1,0,2,4,4,3,5,0,0,5,1,0,1,1,0,137,137,137,up,1,1.9760839999999007,None,,,,pil_002,002,0.5,1.0,2023-03-22_15h08.01.318,stress,2023.1.0,60.00650470530375,
2,5,3,4,1,0,4,5,5,6,6,0,1,0,1,1,0,138,138,138,up,1,1.1247950999986642,None,,,,pil_002,002,0.5,1.0,2023-03-22_15h08.01.318,stress,2023.1.0,60.00650470530375,
5,1,0,3,2,4,4,6,6,3,5,5,1,1,0,1,0,139,139,139,left,1,0.6326129000008223,None,,,,pil_002,002,0.5,1.0,2023-03-22_15h08.01.318,stress,2023.1.0,60.00650470530375,
3,2,0,4,5,1,4,0,5,6,6,3,0,0,1,1,0,140,140,140,up,1,0.6616818999991665,None,,,,pil_002,002,0.5,1.0,2023-03-22_15h08.01.318,stress,2023.1.0,60.00650470530375,
4,0,5,2,3,1,4,5,3,3,0,0,0,0,0,1,0,141,141,141,left,1,1.2364949000002525,None,,,,pil_002,002,0.5,1.0,2023-03-22_15h08.01.318,stress,2023.1.0,60.00650470530375,
1,5,3,4,0,2,4,5,6,5,3,0,0,0,1,1,0,142,142,142,up,1,0.9327972999999474,None,,,,pil_002,002,0.5,1.0,2023-03-22_15h08.01.318,stress,2023.1.0,60.00650470530375,
1,0,3,5,2,4,4,0,3,6,5,3,1,1,1,1,0,143,143,143,up,1,0.9777429999994638,None,,,,pil_002,002,0.5,1.0,2023-03-22_15h08.01.318,stress,2023.1.0,60.00650470530375,
0,4,3,5,2,1,4,3,0,3,6,5,0,1,0,1,0,144,144,144,left,1,0.7391808000011224,None,,,,pil_002,002,0.5,1.0,2023-03-22_15h08.01.318,stress,2023.1.0,60.00650470530375,
4,1,3,0,2,5,4,3,5,0,0,3,0,1,1,1,0,145,145,145,up,1,0.5252013999997871,None,,,,pil_002,002,0.5,1.0,2023-03-22_15h08.01.318,stress,2023.1.0,60.00650470530375,
0,3,1,5,2,4,4,5,0,3,5,6,1,1,1,1,0,146,146,146,up,1,0.9666625000008935,None,,,,pil_002,002,0.5,1.0,2023-03-22_15h08.01.318,stress,2023.1.0,60.00650470530375,
5,4,1,2,3,0,4,6,0,6,3,5,1,0,0,1,0,147,147,147,left,1,1.0203347999995458,None,,,,pil_002,002,0.5,1.0,2023-03-22_15h08.01.318,stress,2023.1.0,60.00650470530375,
5,0,2,3,1,4,4,6,3,0,3,5,1,1,0,1,0,148,148,148,left,1,0.8714388999997027,None,,,,pil_002,002,0.5,1.0,2023-03-22_15h08.01.318,stress,2023.1.0,60.00650470530375,
1,5,0,4,2,3,4,5,0,3,5,6,1,0,0,1,0,149,149,149,left,1,1.232693299998573,None,,,,pil_002,002,0.5,1.0,2023-03-22_15h08.01.318,stress,2023.1.0,60.00650470530375,
2,4,0,5,3,1,4,3,6,3,0,6,1,0,0,1,0,150,150,150,left,1,1.0423952000001009,None,,,,pil_002,002,0.5,1.0,2023-03-22_15h08.01.318,stress,2023.1.0,60.00650470530375,
5,1,2,0,4,3,4,3,5,5,6,0,0,0,0,1,0,151,151,151,left,1,0.921905200000765,None,,,,pil_002,002,0.5,1.0,2023-03-22_15h08.01.318,stress,2023.1.0,60.00650470530375,
0,5,4,2,3,1,4,0,6,3,5,6,0,1,1,1,0,152,152,152,up,1,1.4851716000011947,None,,,,pil_002,002,0.5,1.0,2023-03-22_15h08.01.318,stress,2023.1.0,60.00650470530375,
0,5,2,4,3,1,4,3,0,5,5,3,0,1,1,1,0,153,153,153,up,1,0.821350899999743,None,,,,pil_002,002,0.5,1.0,2023-03-22_15h08.01.318,stress,2023.1.0,60.00650470530375,
1,4,3,5,2,0,4,6,6,3,0,5,1,0,1,1,0,154,154,154,up,1,1.7121462000013707,None,,,,pil_002,002,0.5,1.0,2023-03-22_15h08.01.318,stress,2023.1.0,60.00650470530375,
1,5,0,4,3,2,4,5,3,3,5,6,0,0,0,1,0,155,155,155,left,1,1.0113997000007657,None,,,,pil_002,002,0.5,1.0,2023-03-22_15h08.01.318,stress,2023.1.0,60.00650470530375,
5,0,1,3,4,2,4,3,5,0,0,6,0,0,1,1,0,156,156,156,up,1,0.542039099998874,None,,,,pil_002,002,0.5,1.0,2023-03-22_15h08.01.318,stress,2023.1.0,60.00650470530375,
5,3,2,1,0,4,4,3,0,5,6,5,0,1,0,1,0,157,157,157,left,1,2.2093475999990915,None,,,,pil_002,002,0.5,1.0,2023-03-22_15h08.01.318,stress,2023.1.0,60.00650470530375,
4,3,0,2,1,5,4,0,3,6,0,6,1,1,0,1,0,158,158,158,left,1,0.5824293000005127,None,,,,pil_002,002,0.5,1.0,2023-03-22_15h08.01.318,stress,2023.1.0,60.00650470530375,
1,0,2,5,3,4,4,0,0,5,3,6,1,1,1,1,0,159,159,159,up,1,0.9308676999989984,space,1.2852543000008154,,,pil_002,002,0.5,1.0,2023-03-22_15h08.01.318,stress,2023.1.0,60.00650470530375,
4,5,3,1,0,2,4,0,3,6,5,5,0,0,0,1,0,160,160,160,left,1,1.771274499998981,None,,,,pil_002,002,0.5,1.0,2023-03-22_15h08.01.318,stress,2023.1.0,60.00650470530375,
4,5,3,2,0,1,4,3,0,6,6,0,1,0,1,1,0,161,161,161,up,1,0.6085755000003701,None,,,,pil_002,002,0.5,1.0,2023-03-22_15h08.01.318,stress,2023.1.0,60.00650470530375,
4,2,1,0,5,3,4,3,5,0,5,6,0,1,0,1,0,162,162,162,left,1,6.601768300000913,None,,,,pil_002,002,0.5,1.0,2023-03-22_15h08.01.318,stress,2023.1.0,60.00650470530375,
1,3,0,5,4,2,4,6,5,6,5,3,1,1,1,1,0,163,163,163,left,0,2.023928500000693,None,,,,pil_002,002,0.5,1.0,2023-03-22_15h08.01.318,stress,2023.1.0,60.00650470530375,
1,4,5,2,0,3,4,3,5,6,0,0,1,0,0,1,0,164,164,164,left,1,0.8365315999999439,None,,,,pil_002,002,0.5,1.0,2023-03-22_15h08.01.318,stress,2023.1.0,60.00650470530375,
2,1,5,3,4,0,4,6,0,0,3,6,1,0,0,1,0,165,165,165,left,1,0.8588124999987485,None,,,,pil_002,002,0.5,1.0,2023-03-22_15h08.01.318,stress,2023.1.0,60.00650470530375,
3,1,5,4,2,0,4,0,3,6,0,6,1,1,0,1,0,166,166,166,left,1,0.7416318000014144,None,,,,pil_002,002,0.5,1.0,2023-03-22_15h08.01.318,stress,2023.1.0,60.00650470530375,
4,3,0,1,2,5,4,6,6,5,5,3,1,0,0,1,0,167,167,167,left,1,0.5805522999999084,None,,,,pil_002,002,0.5,1.0,2023-03-22_15h08.01.318,stress,2023.1.0,60.00650470530375,
0,1,3,2,5,4,4,3,6,5,0,3,0,1,1,1,0,168,168,168,up,1,1.4404082000000926,None,,,,pil_002,002,0.5,1.0,2023-03-22_15h08.01.318,stress,2023.1.0,60.00650470530375,
5,3,4,0,2,1,4,6,3,5,6,0,0,1,1,1,0,169,169,169,up,1,0.6959602999995695,None,,,,pil_002,002,0.5,1.0,2023-03-22_15h08.01.318,stress,2023.1.0,60.00650470530375,
3,0,1,2,5,4,4,0,6,5,0,6,1,1,1,1,0,170,170,170,up,1,0.7066663000005065,None,,,,pil_002,002,0.5,1.0,2023-03-22_15h08.01.318,stress,2023.1.0,60.00650470530375,
0,5,4,3,1,2,4,0,6,3,5,0,0,1,1,1,0,171,171,171,up,1,1.0143523999995523,None,,,,pil_002,002,0.5,1.0,2023-03-22_15h08.01.318,stress,2023.1.0,60.00650470530375,
5,1,0,2,4,3,4,0,3,3,0,5,1,1,0,1,0,172,172,172,left,1,0.5363181000011537,None,,,,pil_002,002,0.5,1.0,2023-03-22_15h08.01.318,stress,2023.1.0,60.00650470530375,
5,0,4,1,3,2,4,5,3,5,3,6,1,1,0,1,0,173,173,173,left,1,0.4809261999998853,None,,,,pil_002,002,0.5,1.0,2023-03-22_15h08.01.318,stress,2023.1.0,60.00650470530375,
5,4,3,2,0,1,4,3,6,5,6,3,0,1,0,1,0,174,174,174,left,1,0.3941389999999956,None,,,,pil_002,002,0.5,1.0,2023-03-22_15h08.01.318,stress,2023.1.0,60.00650470530375,
4,5,1,2,0,3,4,3,6,5,0,6,0,1,0,1,0,175,175,175,left,1,1.2458674999998038,None,,,,pil_002,002,0.5,1.0,2023-03-22_15h08.01.318,stress,2023.1.0,60.00650470530375,
1,4,0,3,5,2,4,3,0,6,3,5,0,1,1,1,0,176,176,176,up,1,0.8936945000004926,None,,,,pil_002,002,0.5,1.0,2023-03-22_15h08.01.318,stress,2023.1.0,60.00650470530375,
5,2,0,3,4,1,4,6,5,6,0,5,1,0,0,1,0,177,177,177,left,1,0.5508755000009842,None,,,,pil_002,002,0.5,1.0,2023-03-22_15h08.01.318,stress,2023.1.0,60.00650470530375,
5,0,4,1,2,3,4,3,6,0,5,5,1,0,0,1,0,178,178,178,left,1,0.46018069999990985,None,,,,pil_002,002,0.5,1.0,2023-03-22_15h08.01.318,stress,2023.1.0,60.00650470530375,
3,4,1,5,2,0,4,3,0,3,6,5,1,0,1,1,0,179,179,179,up,1,0.6737736999984918,None,,,,pil_002,002,0.5,1.0,2023-03-22_15h08.01.318,stress,2023.1.0,60.00650470530375,
4,0,3,2,1,5,4,6,5,0,3,3,1,1,1,1,0,180,180,180,up,1,0.6347500000010768,None,,,,pil_002,002,0.5,1.0,2023-03-22_15h08.01.318,stress,2023.1.0,60.00650470530375,
5,2,0,1,4,3,4,3,5,0,0,6,0,0,1,1,0,181,181,181,up,1,0.6205602000009094,None,,,,pil_002,002,0.5,1.0,2023-03-22_15h08.01.318,stress,2023.1.0,60.00650470530375,
3,2,5,0,1,4,4,0,3,5,6,0,0,1,1,1,0,182,182,182,up,1,1.2570176999997784,None,,,,pil_002,002,0.5,1.0,2023-03-22_15h08.01.318,stress,2023.1.0,60.00650470530375,
3,0,4,2,5,1,4,0,5,3,0,6,0,1,1,1,0,183,183,183,up,1,0.7250846000006277,None,,,,pil_002,002,0.5,1.0,2023-03-22_15h08.01.318,stress,2023.1.0,60.00650470530375,
4,2,3,0,1,5,4,5,6,0,6,3,0,0,1,1,0,184,184,184,up,1,0.4612033000012161,None,,,,pil_002,002,0.5,1.0,2023-03-22_15h08.01.318,stress,2023.1.0,60.00650470530375,
0,5,4,2,1,3,4,5,6,5,3,3,1,1,0,1,0,185,185,185,up,0,0.4338934000006702,None,,,,pil_002,002,0.5,1.0,2023-03-22_15h08.01.318,stress,2023.1.0,60.00650470530375,
5,0,1,2,4,3,4,6,0,5,3,0,1,0,0,1,0,186,186,186,left,1,0.8306669999983569,None,,,,pil_002,002,0.5,1.0,2023-03-22_15h08.01.318,stress,2023.1.0,60.00650470530375,
1,4,2,0,5,3,4,5,3,3,0,5,0,0,0,1,0,187,187,187,left,1,1.9449779000005947,None,,,,pil_002,002,0.5,1.0,2023-03-22_15h08.01.318,stress,2023.1.0,60.00650470530375,
2,0,5,3,1,4,4,5,6,5,6,0,1,1,0,1,0,188,188,188,left,1,0.8171899000008125,None,,,,pil_002,002,0.5,1.0,2023-03-22_15h08.01.318,stress,2023.1.0,60.00650470530375,
3,4,2,1,5,0,4,3,0,5,6,3,0,0,1,1,0,189,189,189,up,1,1.1797788000003493,None,,,,pil_002,002,0.5,1.0,2023-03-22_15h08.01.318,stress,2023.1.0,60.00650470530375,
1,2,0,4,3,5,4,0,5,6,3,6,0,0,1,1,0,190,190,190,up,1,0.7750531000001502,None,,,,pil_002,002,0.5,1.0,2023-03-22_15h08.01.318,stress,2023.1.0,60.00650470530375,
2,1,3,0,4,5,4,6,5,0,5,3,0,0,1,1,0,191,191,191,up,1,0.9084613000013633,None,,,,pil_002,002,0.5,1.0,2023-03-22_15h08.01.318,stress,2023.1.0,60.00650470530375,
0,2,4,1,3,5,4,6,0,6,3,5,0,0,1,1,0,192,192,192,up,1,2.3608291000000463,None,,,,pil_002,002,0.5,1.0,2023-03-22_15h08.01.318,stress,2023.1.0,60.00650470530375,
1,3,5,2,4,0,4,0,3,6,0,5,0,1,1,1,0,193,193,193,up,1,1.111718899999687,None,,,,pil_002,002,0.5,1.0,2023-03-22_15h08.01.318,stress,2023.1.0,60.00650470530375,
1,0,5,3,2,4,4,0,5,5,3,6,1,1,1,1,0,194,194,194,up,1,1.2770332999989478,None,,,,pil_002,002,0.5,1.0,2023-03-22_15h08.01.318,stress,2023.1.0,60.00650470530375,
1,0,3,4,2,5,4,5,0,0,5,3,0,0,0,1,0,195,195,195,left,1,0.9726102000004175,None,,,,pil_002,002,0.5,1.0,2023-03-22_15h08.01.318,stress,2023.1.0,60.00650470530375,
2,0,3,4,1,5,4,3,0,5,0,3,0,1,1,1,0,196,196,196,up,1,1.8209599000001617,None,,,,pil_002,002,0.5,1.0,2023-03-22_15h08.01.318,stress,2023.1.0,60.00650470530375,
1,2,0,5,4,3,4,3,5,0,5,6,1,0,0,1,0,197,197,197,up,0,0.8496037000004435,None,,,,pil_002,002,0.5,1.0,2023-03-22_15h08.01.318,stress,2023.1.0,60.00650470530375,
1,0,5,2,3,4,4,5,0,5,3,0,1,1,0,1,0,198,198,198,left,1,0.8206448000000819,None,,,,pil_002,002,0.5,1.0,2023-03-22_15h08.01.318,stress,2023.1.0,60.00650470530375,
3,2,4,0,5,1,4,5,3,3,5,0,1,0,1,1,0,199,199,199,up,1,0.9917865000006714,space,1.5026197000006505,,,pil_002,002,0.5,1.0,2023-03-22_15h08.01.318,stress,2023.1.0,60.00650470530375,
2,1,0,5,3,4,4,0,0,6,5,5,1,0,0,1,0,200,200,200,left,1,0.8941992000000027,None,,,,pil_002,002,0.5,1.0,2023-03-22_15h08.01.318,stress,2023.1.0,60.00650470530375,
2,5,4,1,3,0,4,0,6,5,0,3,1,0,0,1,0,201,201,201,left,1,0.7545694000000367,None,,,,pil_002,002,0.5,1.0,2023-03-22_15h08.01.318,stress,2023.1.0,60.00650470530375,
0,1,5,4,2,3,4,5,0,0,3,6,0,0,0,1,0,202,202,202,left,1,0.5418732999987697,None,,,,pil_002,002,0.5,1.0,2023-03-22_15h08.01.318,stress,2023.1.0,60.00650470530375,
2,3,5,1,0,4,4,0,6,5,0,3,0,1,0,1,0,203,203,203,left,1,1.2774605000013253,None,,,,pil_002,002,0.5,1.0,2023-03-22_15h08.01.318,stress,2023.1.0,60.00650470530375,
4,3,5,1,0,2,4,0,5,5,6,3,1,0,0,1,0,204,204,204,left,1,1.384220899999491,None,,,,pil_002,002,0.5,1.0,2023-03-22_15h08.01.318,stress,2023.1.0,60.00650470530375,
2,3,0,5,1,4,4,0,5,0,3,6,0,1,1,1,0,205,205,205,up,1,0.6486356000004889,None,,,,pil_002,002,0.5,1.0,2023-03-22_15h08.01.318,stress,2023.1.0,60.00650470530375,
3,0,2,5,1,4,4,6,0,5,0,3,0,1,1,1,0,206,206,206,up,1,0.9338891999996122,None,,,,pil_002,002,0.5,1.0,2023-03-22_15h08.01.318,stress,2023.1.0,60.00650470530375,
0,4,5,3,1,2,4,6,0,3,3,5,1,1,1,1,0,207,207,207,up,1,1.4015156000004936,None,,,,pil_002,002,0.5,1.0,2023-03-22_15h08.01.318,stress,2023.1.0,60.00650470530375,
1,4,2,0,5,3,4,0,6,0,3,6,1,1,0,1,0,208,208,208,left,1,1.3487122999995336,None,,,,pil_002,002,0.5,1.0,2023-03-22_15h08.01.318,stress,2023.1.0,60.00650470530375,
1,4,0,3,2,5,4,5,3,0,6,0,0,1,1,1,0,209,209,209,up,1,1.3454596000010497,None,,,,pil_002,002,0.5,1.0,2023-03-22_15h08.01.318,stress,2023.1.0,60.00650470530375,
1,5,2,4,3,0,4,6,5,5,0,0,0,1,0,1,0,210,210,210,left,1,0.827150500001153,None,,,,pil_002,002,0.5,1.0,2023-03-22_15h08.01.318,stress,2023.1.0,60.00650470530375,
4,1,0,2,5,3,4,0,5,6,3,5,0,0,1,1,0,211,211,211,up,1,0.9335968999985198,None,,,,pil_002,002,0.5,1.0,2023-03-22_15h08.01.318,stress,2023.1.0,60.00650470530375,
3,1,5,4,2,0,4,3,6,0,5,5,1,1,0,1,0,212,212,212,left,1,0.5736440000000584,None,,,,pil_002,002,0.5,1.0,2023-03-22_15h08.01.318,stress,2023.1.0,60.00650470530375,
5,1,3,2,0,4,4,3,0,5,3,0,1,0,0,1,0,213,213,213,left,1,1.4023137000003771,None,,,,pil_002,002,0.5,1.0,2023-03-22_15h08.01.318,stress,2023.1.0,60.00650470530375,
2,3,0,1,4,5,4,0,3,3,6,0,0,0,1,1,0,214,214,214,up,1,1.3598008999997546,None,,,,pil_002,002,0.5,1.0,2023-03-22_15h08.01.318,stress,2023.1.0,60.00650470530375,
3,5,2,1,0,4,4,3,3,0,6,6,1,0,1,1,0,215,215,215,up,1,2.0322409000000334,None,,,,pil_002,002,0.5,1.0,2023-03-22_15h08.01.318,stress,2023.1.0,60.00650470530375,
3,1,2,5,4,0,4,5,6,5,0,0,0,0,1,1,0,216,216,216,up,1,0.7199446000013268,None,,,,pil_002,002,0.5,1.0,2023-03-22_15h08.01.318,stress,2023.1.0,60.00650470530375,
3,4,1,0,2,5,4,6,5,6,0,3,0,0,1,1,0,217,217,217,up,1,0.4851331999998365,None,,,,pil_002,002,0.5,1.0,2023-03-22_15h08.01.318,stress,2023.1.0,60.00650470530375,
0,3,5,4,1,2,4,6,0,3,5,5,1,0,1,1,0,218,218,218,up,1,0.6370656999988569,None,,,,pil_002,002,0.5,1.0,2023-03-22_15h08.01.318,stress,2023.1.0,60.00650470530375,
2,3,5,0,1,4,4,5,3,3,0,0,0,1,0,1,0,219,219,219,left,1,0.7917238000009093,None,,,,pil_002,002,0.5,1.0,2023-03-22_15h08.01.318,stress,2023.1.0,60.00650470530375,
3,5,0,2,4,1,4,6,6,0,0,3,1,1,1,1,0,220,220,220,up,1,0.7266168000005564,None,,,,pil_002,002,0.5,1.0,2023-03-22_15h08.01.318,stress,2023.1.0,60.00650470530375,
4,1,3,2,5,0,4,6,3,6,5,0,0,1,0,1,0,221,221,221,left,1,0.8298444000010932,None,,,,pil_002,002,0.5,1.0,2023-03-22_15h08.01.318,stress,2023.1.0,60.00650470530375,
1,4,2,3,5,0,4,0,3,6,6,5,0,1,0,1,0,222,222,222,left,1,0.7803925000007439,None,,,,pil_002,002,0.5,1.0,2023-03-22_15h08.01.318,stress,2023.1.0,60.00650470530375,
3,4,0,5,1,2,4,6,3,5,6,0,1,0,0,1,0,223,223,223,left,1,0.6975419999998849,None,,,,pil_002,002,0.5,1.0,2023-03-22_15h08.01.318,stress,2023.1.0,60.00650470530375,
0,1,3,4,2,5,4,0,3,6,5,5,0,1,0,1,0,224,224,224,left,1,0.9166884000005666,None,,,,pil_002,002,0.5,1.0,2023-03-22_15h08.01.318,stress,2023.1.0,60.00650470530375,
1,2,3,5,4,0,4,5,0,0,6,5,0,1,0,1,0,225,225,225,left,1,0.9049257999995461,None,,,,pil_002,002,0.5,1.0,2023-03-22_15h08.01.318,stress,2023.1.0,60.00650470530375,
0,2,3,1,4,5,4,3,0,0,5,6,1,1,0,1,0,226,226,226,left,1,0.5524046000009548,None,,,,pil_002,002,0.5,1.0,2023-03-22_15h08.01.318,stress,2023.1.0,60.00650470530375,
3,5,1,2,4,0,4,6,3,6,5,0,0,1,0,1,0,227,227,227,left,1,0.6793728999982704,None,,,,pil_002,002,0.5,1.0,2023-03-22_15h08.01.318,stress,2023.1.0,60.00650470530375,
4,3,0,1,5,2,4,3,3,5,6,6,0,1,1,1,0,228,228,228,up,1,0.9160854000001564,None,,,,pil_002,002,0.5,1.0,2023-03-22_15h08.01.318,stress,2023.1.0,60.00650470530375,
0,4,2,5,1,3,4,6,5,0,5,3,0,0,1,1,0,229,229,229,up,1,1.5605433999990055,None,,,,pil_002,002,0.5,1.0,2023-03-22_15h08.01.318,stress,2023.1.0,60.00650470530375,
0,3,4,1,2,5,4,6,5,0,3,6,1,1,1,1,0,230,230,230,up,1,1.0250753999989684,None,,,,pil_002,002,0.5,1.0,2023-03-22_15h08.01.318,stress,2023.1.0,60.00650470530375,
5,0,2,1,4,3,4,0,3,6,0,3,1,0,1,1,0,231,231,231,up,1,0.5124842000004719,None,,,,pil_002,002,0.5,1.0,2023-03-22_15h08.01.318,stress,2023.1.0,60.00650470530375,
2,4,0,1,3,5,4,0,6,5,0,5,1,0,0,1,0,232,232,232,left,1,1.2397858000003907,None,,,,pil_002,002,0.5,1.0,2023-03-22_15h08.01.318,stress,2023.1.0,60.00650470530375,
1,4,3,0,5,2,4,3,6,3,6,0,0,1,0,1,0,233,233,233,left,1,1.087622700000793,None,,,,pil_002,002,0.5,1.0,2023-03-22_15h08.01.318,stress,2023.1.0,60.00650470530375,
1,0,3,5,2,4,4,6,5,5,6,0,0,0,1,1,0,234,234,234,up,1,0.6816041999991285,None,,,,pil_002,002,0.5,1.0,2023-03-22_15h08.01.318,stress,2023.1.0,60.00650470530375,
5,0,3,1,4,2,4,0,5,0,3,5,1,0,0,1,0,235,235,235,left,1,0.8293658999991749,None,,,,pil_002,002,0.5,1.0,2023-03-22_15h08.01.318,stress,2023.1.0,60.00650470530375,
4,0,5,1,2,3,4,6,0,3,6,3,1,1,1,1,0,236,236,236,up,1,1.0639587999994546,None,,,,pil_002,002,0.5,1.0,2023-03-22_15h08.01.318,stress,2023.1.0,60.00650470530375,
4,3,1,0,2,5,4,6,3,0,3,5,1,1,1,1,0,237,237,237,up,1,0.5471268000001146,None,,,,pil_002,002,0.5,1.0,2023-03-22_15h08.01.318,stress,2023.1.0,60.00650470530375,
3,4,0,2,5,1,4,5,3,3,6,6,0,0,0,1,0,238,238,238,left,1,0.6090253999991546,None,,,,pil_002,002,0.5,1.0,2023-03-22_15h08.01.318,stress,2023.1.0,60.00650470530375,
5,1,0,2,3,4,4,6,3,0,0,5,1,1,0,1,0,239,239,239,left,1,0.7301505999985238,space,1.752540499999668,,,pil_002,002,0.5,1.0,2023-03-22_15h08.01.318,stress,2023.1.0,60.00650470530375,
4,3,1,5,0,2,4,3,5,3,6,0,1,1,1,1,0,240,240,240,up,1,0.765868300000875,None,,,,pil_002,002,0.5,1.0,2023-03-22_15h08.01.318,stress,2023.1.0,60.00650470530375,
5,1,2,3,4,0,4,0,5,6,6,3,0,1,1,1,0,241,241,241,up,1,0.7708821999985958,None,,,,pil_002,002,0.5,1.0,2023-03-22_15h08.01.318,stress,2023.1.0,60.00650470530375,
3,1,5,4,0,2,4,6,0,3,5,5,0,0,0,1,0,242,242,242,left,1,0.7408599999998842,None,,,,pil_002,002,0.5,1.0,2023-03-22_15h08.01.318,stress,2023.1.0,60.00650470530375,
2,4,5,0,3,1,4,5,5,3,3,0,0,1,1,1,0,243,243,243,up,1,0.9604665999995632,None,,,,pil_002,002,0.5,1.0,2023-03-22_15h08.01.318,stress,2023.1.0,60.00650470530375,
5,1,2,3,0,4,4,6,0,3,5,0,1,0,1,1,0,244,244,244,up,1,0.40827379999973346,None,,,,pil_002,002,0.5,1.0,2023-03-22_15h08.01.318,stress,2023.1.0,60.00650470530375,
2,4,1,3,0,5,4,5,3,0,3,0,0,0,1,1,0,245,245,245,up,1,0.9467440999997052,None,,,,pil_002,002,0.5,1.0,2023-03-22_15h08.01.318,stress,2023.1.0,60.00650470530375,
2,5,3,0,1,4,4,5,0,5,6,3,0,1,0,1,0,246,246,246,left,1,1.138630600000397,None,,,,pil_002,002,0.5,1.0,2023-03-22_15h08.01.318,stress,2023.1.0,60.00650470530375,
3,4,1,5,2,0,4,6,3,5,0,5,1,1,1,1,0,247,247,247,up,1,0.7534949000000779,None,,,,pil_002,002,0.5,1.0,2023-03-22_15h08.01.318,stress,2023.1.0,60.00650470530375,
3,1,0,4,2,5,4,6,0,0,3,6,1,0,1,1,0,248,248,248,up,1,0.6284713000004558,None,,,,pil_002,002,0.5,1.0,2023-03-22_15h08.01.318,stress,2023.1.0,60.00650470530375,
5,2,4,1,3,0,4,6,3,0,5,5,0,1,1,1,0,249,249,249,up,1,3.4364664999993693,None,,,,pil_002,002,0.5,1.0,2023-03-22_15h08.01.318,stress,2023.1.0,60.00650470530375,
5,2,0,3,4,1,4,0,6,3,0,6,0,0,0,1,0,250,250,250,left,1,0.6723934000001464,None,,,,pil_002,002,0.5,1.0,2023-03-22_15h08.01.318,stress,2023.1.0,60.00650470530375,
4,0,3,1,2,5,4,0,6,3,5,6,1,0,1,1,0,251,251,251,left,0,0.6963298000009672,None,,,,pil_002,002,0.5,1.0,2023-03-22_15h08.01.318,stress,2023.1.0,60.00650470530375,
2,5,1,4,3,0,4,0,6,5,6,5,1,0,0,1,0,252,252,252,left,1,1.298781900000904,None,,,,pil_002,002,0.5,1.0,2023-03-22_15h08.01.318,stress,2023.1.0,60.00650470530375,
2,4,3,5,1,0,4,3,0,5,3,0,0,1,1,1,0,253,253,253,up,1,1.8770131999990554,None,,,,pil_002,002,0.5,1.0,2023-03-22_15h08.01.318,stress,2023.1.0,60.00650470530375,
0,3,5,2,4,1,4,6,6,5,0,0,1,1,1,1,0,254,254,254,up,1,0.8678546000010101,None,,,,pil_002,002,0.5,1.0,2023-03-22_15h08.01.318,stress,2023.1.0,60.00650470530375,
3,4,0,1,2,5,4,3,0,5,6,0,1,0,1,1,0,255,255,255,left,0,0.8265203999999358,None,,,,pil_002,002,0.5,1.0,2023-03-22_15h08.01.318,stress,2023.1.0,60.00650470530375,
5,4,1,0,2,3,4,6,3,6,5,0,0,1,1,1,0,256,256,256,up,1,1.5244795999988128,None,,,,pil_002,002,0.5,1.0,2023-03-22_15h08.01.318,stress,2023.1.0,60.00650470530375,
1,5,4,2,3,0,4,5,0,5,3,6,1,0,0,1,0,257,257,257,left,1,1.0879733999991004,None,,,,pil_002,002,0.5,1.0,2023-03-22_15h08.01.318,stress,2023.1.0,60.00650470530375,
3,4,2,5,0,1,4,5,6,3,0,0,1,0,0,1,0,258,258,258,left,1,0.6055914999997185,None,,,,pil_002,002,0.5,1.0,2023-03-22_15h08.01.318,stress,2023.1.0,60.00650470530375,
0,5,4,1,2,3,4,5,6,3,6,0,0,1,0,1,0,259,259,259,left,1,1.2658492999998998,None,,,,pil_002,002,0.5,1.0,2023-03-22_15h08.01.318,stress,2023.1.0,60.00650470530375,
0,2,5,1,3,4,4,3,6,3,0,5,0,1,0,1,0,260,260,260,left,1,0.9263097000002745,None,,,,pil_002,002,0.5,1.0,2023-03-22_15h08.01.318,stress,2023.1.0,60.00650470530375,
2,3,5,1,4,0,4,0,5,0,3,3,0,1,1,1,0,261,261,261,up,1,0.9289716999992379,None,,,,pil_002,002,0.5,1.0,2023-03-22_15h08.01.318,stress,2023.1.0,60.00650470530375,
4,5,2,1,3,0,4,0,5,0,5,3,0,0,0,1,0,262,262,262,left,1,1.6761153999996168,None,,,,pil_002,002,0.5,1.0,2023-03-22_15h08.01.318,stress,2023.1.0,60.00650470530375,
0,2,1,5,4,3,4,5,6,0,3,3,1,0,0,1,0,263,263,263,left,1,1.3944248000007065,None,,,,pil_002,002,0.5,1.0,2023-03-22_15h08.01.318,stress,2023.1.0,60.00650470530375,
2,1,4,0,3,5,4,5,0,5,6,0,1,1,1,1,0,264,264,264,left,0,1.3541134000006423,None,,,,pil_002,002,0.5,1.0,2023-03-22_15h08.01.318,stress,2023.1.0,60.00650470530375,
5,0,4,1,3,2,4,3,5,0,6,5,1,1,1,1,0,265,265,265,left,0,1.7038109000004624,None,,,,pil_002,002,0.5,1.0,2023-03-22_15h08.01.318,stress,2023.1.0,60.00650470530375,
1,5,0,2,4,3,4,6,3,0,5,0,0,0,1,1,0,266,266,266,up,1,1.3119402000011178,None,,,,pil_002,002,0.5,1.0,2023-03-22_15h08.01.318,stress,2023.1.0,60.00650470530375,
2,3,0,1,4,5,4,0,6,5,3,3,0,1,0,1,0,267,267,267,left,1,1.4676063000006252,None,,,,pil_002,002,0.5,1.0,2023-03-22_15h08.01.318,stress,2023.1.0,60.00650470530375,
5,2,4,3,1,0,4,0,3,5,6,5,0,0,1,1,0,268,268,268,up,1,1.9817936999988888,None,,,,pil_002,002,0.5,1.0,2023-03-22_15h08.01.318,stress,2023.1.0,60.00650470530375,
5,3,2,1,0,4,4,0,3,0,6,5,1,0,1,1,0,269,269,269,up,1,0.9003515999993397,None,,,,pil_002,002,0.5,1.0,2023-03-22_15h08.01.318,stress,2023.1.0,60.00650470530375,
2,4,5,1,0,3,4,6,5,0,6,3,1,0,0,1,0,270,270,270,left,1,0.8227974999990693,None,,,,pil_002,002,0.5,1.0,2023-03-22_15h08.01.318,stress,2023.1.0,60.00650470530375,
5,4,3,0,1,2,4,3,0,3,0,5,1,1,0,1,0,271,271,271,left,1,1.2593672999992123,None,,,,pil_002,002,0.5,1.0,2023-03-22_15h08.01.318,stress,2023.1.0,60.00650470530375,
3,1,2,4,5,0,4,0,5,5,6,6,0,0,1,1,0,272,272,272,up,1,1.3172185000003083,None,,,,pil_002,002,0.5,1.0,2023-03-22_15h08.01.318,stress,2023.1.0,60.00650470530375,
4,3,0,1,2,5,4,6,0,3,5,3,0,1,0,1,0,273,273,273,left,1,1.6050248999999894,None,,,,pil_002,002,0.5,1.0,2023-03-22_15h08.01.318,stress,2023.1.0,60.00650470530375,
3,5,0,1,2,4,4,6,5,0,0,5,0,0,0,1,0,274,274,274,left,1,0.6913127999996505,None,,,,pil_002,002,0.5,1.0,2023-03-22_15h08.01.318,stress,2023.1.0,60.00650470530375,
4,2,5,1,3,0,4,6,0,5,0,5,0,1,0,1,0,275,275,275,left,1,0.6763360000004468,None,,,,pil_002,002,0.5,1.0,2023-03-22_15h08.01.318,stress,2023.1.0,60.00650470530375,
2,3,1,4,0,5,4,0,3,6,0,3,1,0,1,1,0,276,276,276,up,1,1.5732557000010274,None,,,,pil_002,002,0.5,1.0,2023-03-22_15h08.01.318,stress,2023.1.0,60.00650470530375,
3,4,2,5,0,1,4,5,3,0,5,3,0,0,1,1,0,277,277,277,up,1,0.778641199998674,None,,,,pil_002,002,0.5,1.0,2023-03-22_15h08.01.318,stress,2023.1.0,60.00650470530375,
5,1,2,4,3,0,4,0,6,6,0,5,1,1,0,1,0,278,278,278,left,1,0.8880304999984219,None,,,,pil_002,002,0.5,1.0,2023-03-22_15h08.01.318,stress,2023.1.0,60.00650470530375,
5,0,3,2,4,1,4,6,0,6,5,3,0,1,0,1,0,279,279,279,left,1,0.7317497000003641,space,1.8131916000002093,,,pil_002,002,0.5,1.0,2023-03-22_15h08.01.318,stress,2023.1.0,60.00650470530375,
2,1,5,4,0,3,4,3,3,5,6,0,1,1,1,1,0,280,280,280,up,1,1.0346437999996851,None,,,,pil_002,002,0.5,1.0,2023-03-22_15h08.01.318,stress,2023.1.0,60.00650470530375,
3,2,1,0,4,5,4,3,6,6,5,3,0,0,1,1,0,281,281,281,up,1,0.8288443999990704,None,,,,pil_002,002,0.5,1.0,2023-03-22_15h08.01.318,stress,2023.1.0,60.00650470530375,
0,3,2,4,5,1,4,3,6,3,6,0,1,1,1,1,0,282,282,282,up,1,0.9710238000006939,None,,,,pil_002,002,0.5,1.0,2023-03-22_15h08.01.318,stress,2023.1.0,60.00650470530375,
5,0,1,4,3,2,4,3,6,0,5,3,1,0,0,1,0,283,283,283,left,1,1.2001435000001948,None,,,,pil_002,002,0.5,1.0,2023-03-22_15h08.01.318,stress,2023.1.0,60.00650470530375,
4,3,0,1,2,5,4,6,0,6,0,5,1,0,0,1,0,284,284,284,left,1,0.6813662999993539,None,,,,pil_002,002,0.5,1.0,2023-03-22_15h08.01.318,stress,2023.1.0,60.00650470530375,
1,0,5,3,2,4,4,3,6,5,5,0,0,1,0,1,0,285,285,285,left,1,1.7016536999999516,None,,,,pil_002,002,0.5,1.0,2023-03-22_15h08.01.318,stress,2023.1.0,60.00650470530375,
4,3,1,5,2,0,4,6,5,0,5,0,0,0,1,1,0,286,286,286,up,1,1.2692790999990393,None,,,,pil_002,002,0.5,1.0,2023-03-22_15h08.01.318,stress,2023.1.0,60.00650470530375,
0,1,3,2,4,5,4,3,6,5,0,5,1,0,0,1,0,287,287,287,left,1,0.9202086999994208,None,,,,pil_002,002,0.5,1.0,2023-03-22_15h08.01.318,stress,2023.1.0,60.00650470530375,
5,0,3,2,4,1,4,0,6,5,3,6,0,0,0,1,0,288,288,288,left,1,0.5063222999997379,None,,,,pil_002,002,0.5,1.0,2023-03-22_15h08.01.318,stress,2023.1.0,60.00650470530375,
4,5,1,3,2,0,4,6,5,3,0,5,0,0,0,1,0,289,289,289,left,1,0.6106450999996014,None,,,,pil_002,002,0.5,1.0,2023-03-22_15h08.01.318,stress,2023.1.0,60.00650470530375,
0,1,4,3,2,5,4,3,6,0,6,5,0,1,1,1,0,290,290,290,up,1,0.8818267999995442,None,,,,pil_002,002,0.5,1.0,2023-03-22_15h08.01.318,stress,2023.1.0,60.00650470530375,
4,3,0,1,5,2,4,0,3,6,3,6,1,0,0,1,0,291,291,291,left,1,0.6816636999992625,None,,,,pil_002,002,0.5,1.0,2023-03-22_15h08.01.318,stress,2023.1.0,60.00650470530375,
0,1,2,4,3,5,4,6,6,5,3,3,0,1,0,1,0,292,292,292,left,1,1.1436549000009109,None,,,,pil_002,002,0.5,1.0,2023-03-22_15h08.01.318,stress,2023.1.0,60.00650470530375,
3,2,0,1,5,4,4,5,0,6,5,6,0,0,1,1,0,293,293,293,up,1,0.7412508000015805,None,,,,pil_002,002,0.5,1.0,2023-03-22_15h08.01.318,stress,2023.1.0,60.00650470530375,
2,1,5,0,3,4,4,0,3,5,5,6,1,1,0,1,0,294,294,294,left,1,1.0742315000006784,None,,,,pil_002,002,0.5,1.0,2023-03-22_15h08.01.318,stress,2023.1.0,60.00650470530375,
3,0,5,1,4,2,4,5,0,3,0,6,1,1,1,1,0,295,295,295,up,1,0.7633998999990581,None,,,,pil_002,002,0.5,1.0,2023-03-22_15h08.01.318,stress,2023.1.0,60.00650470530375,
0,3,5,4,2,1,4,5,0,3,6,6,0,0,0,1,0,296,296,296,left,1,0.7681762000011076,None,,,,pil_002,002,0.5,1.0,2023-03-22_15h08.01.318,stress,2023.1.0,60.00650470530375,
2,0,3,1,5,4,4,0,5,5,3,6,1,1,1,1,0,297,297,297,up,1,1.0089920000009442,None,,,,pil_002,002,0.5,1.0,2023-03-22_15h08.01.318,stress,2023.1.0,60.00650470530375,
1,2,0,4,3,5,4,6,3,5,3,0,1,0,1,1,0,298,298,298,up,1,1.3197766999983287,None,,,,pil_002,002,0.5,1.0,2023-03-22_15h08.01.318,stress,2023.1.0,60.00650470530375,
1,4,3,2,5,0,4,0,5,3,3,6,1,0,1,1,0,299,299,299,up,1,1.5922755999999936,None,,,,pil_002,002,0.5,1.0,2023-03-22_15h08.01.318,stress,2023.1.0,60.00650470530375,
2,4,0,5,3,1,4,5,6,5,0,3,1,1,1,1,0,300,300,300,up,1,1.1701608999992459,None,,,,pil_002,002,0.5,1.0,2023-03-22_15h08.01.318,stress,2023.1.0,60.00650470530375,
2,4,3,5,1,0,4,5,3,5,0,6,0,0,0,1,0,301,301,301,left,1,1.0903859000009106,None,,,,pil_002,002,0.5,1.0,2023-03-22_15h08.01.318,stress,2023.1.0,60.00650470530375,
3,4,0,5,1,2,4,3,5,0,6,5,1,0,0,1,0,302,302,302,left,1,1.0511638999996649,None,,,,pil_002,002,0.5,1.0,2023-03-22_15h08.01.318,stress,2023.1.0,60.00650470530375,
5,0,2,3,4,1,4,6,0,3,3,6,1,0,1,1,0,303,303,303,up,1,1.5016800000012154,None,,,,pil_002,002,0.5,1.0,2023-03-22_15h08.01.318,stress,2023.1.0,60.00650470530375,
5,0,1,3,4,2,4,0,3,6,0,6,1,0,0,1,0,304,304,304,left,1,0.6051720000014029,None,,,,pil_002,002,0.5,1.0,2023-03-22_15h08.01.318,stress,2023.1.0,60.00650470530375,
1,3,5,2,0,4,4,5,5,6,0,0,0,0,1,1,0,305,305,305,up,1,0.9999305999990611,None,,,,pil_002,002,0.5,1.0,2023-03-22_15h08.01.318,stress,2023.1.0,60.00650470530375,
3,1,5,0,4,2,4,0,3,6,6,0,1,0,1,1,0,306,306,306,up,1,0.6123012999996718,None,,,,pil_002,002,0.5,1.0,2023-03-22_15h08.01.318,stress,2023.1.0,60.00650470530375,
1,0,2,4,3,5,4,3,3,0,5,5,0,0,1,1,0,307,307,307,up,1,1.9570831999990332,None,,,,pil_002,002,0.5,1.0,2023-03-22_15h08.01.318,stress,2023.1.0,60.00650470530375,
4,1,2,0,3,5,4,0,5,5,6,3,1,1,1,1,0,308,308,308,up,1,2.123440400000618,None,,,,pil_002,002,0.5,1.0,2023-03-22_15h08.01.318,stress,2023.1.0,60.00650470530375,
5,1,0,3,2,4,4,0,0,5,6,3,0,1,1,1,0,309,309,309,up,1,0.5379542999999103,None,,,,pil_002,002,0.5,1.0,2023-03-22_15h08.01.318,stress,2023.1.0,60.00650470530375,
5,1,0,2,3,4,4,6,0,5,0,5,0,1,1,1,0,310,310,310,up,1,0.7856150000006892,None,,,,pil_002,002,0.5,1.0,2023-03-22_15h08.01.318,stress,2023.1.0,60.00650470530375,
2,1,4,3,0,5,4,6,6,3,0,5,1,0,0,1,0,311,311,311,left,1,1.2312701999999263,None,,,,pil_002,002,0.5,1.0,2023-03-22_15h08.01.318,stress,2023.1.0,60.00650470530375,
2,5,3,1,4,0,4,5,5,3,0,3,0,0,0,1,0,312,312,312,left,1,1.0732496000000538,None,,,,pil_002,002,0.5,1.0,2023-03-22_15h08.01.318,stress,2023.1.0,60.00650470530375,
0,2,3,5,1,4,4,3,3,6,5,0,0,0,0,1,0,313,313,313,left,1,2.2612512999985483,None,,,,pil_002,002,0.5,1.0,2023-03-22_15h08.01.318,stress,2023.1.0,60.00650470530375,
2,3,0,4,1,5,4,3,0,5,6,0,0,0,0,1,0,314,314,314,left,1,1.0917908999999781,None,,,,pil_002,002,0.5,1.0,2023-03-22_15h08.01.318,stress,2023.1.0,60.00650470530375,
5,2,3,1,4,0,4,3,6,0,6,0,0,1,1,1,0,315,315,315,up,1,0.9788594999990892,None,,,,pil_002,002,0.5,1.0,2023-03-22_15h08.01.318,stress,2023.1.0,60.00650470530375,
5,1,4,3,2,0,4,6,5,6,3,0,0,0,1,1,0,316,316,316,up,1,0.558925299999828,None,,,,pil_002,002,0.5,1.0,2023-03-22_15h08.01.318,stress,2023.1.0,60.00650470530375,
4,1,2,5,3,0,4,6,0,5,3,5,0,0,1,1,0,317,317,317,up,1,0.5700157999999647,None,,,,pil_002,002,0.5,1.0,2023-03-22_15h08.01.318,stress,2023.1.0,60.00650470530375,
4,0,1,5,2,3,4,5,0,5,6,6,1,1,0,1,0,318,318,318,left,1,0.5649508000005881,None,,,,pil_002,002,0.5,1.0,2023-03-22_15h08.01.318,stress,2023.1.0,60.00650470530375,
0,2,1,3,5,4,4,3,5,5,6,3,0,0,1,1,0,319,319,319,up,1,2.386516099999426,space,1.5966112000005523,,,pil_002,002,0.5,1.0,2023-03-22_15h08.01.318,stress,2023.1.0,60.00650470530375,
2,1,0,5,3,4,4,5,3,3,0,0,1,0,1,1,0,320,320,320,up,1,1.0538290999993478,None,,,,pil_002,002,0.5,1.0,2023-03-22_15h08.01.318,stress,2023.1.0,60.00650470530375,
2,3,4,0,1,5,4,3,6,3,6,0,0,1,1,1,0,321,321,321,up,1,1.129245300000548,None,,,,pil_002,002,0.5,1.0,2023-03-22_15h08.01.318,stress,2023.1.0,60.00650470530375,
1,0,2,5,4,3,4,0,5,3,6,0,0,1,1,1,0,322,322,322,up,1,1.332535999999891,None,,,,pil_002,002,0.5,1.0,2023-03-22_15h08.01.318,stress,2023.1.0,60.00650470530375,
5,0,2,4,3,1,4,0,3,5,0,6,0,1,0,1,0,323,323,323,left,1,1.0080302000005759,None,,,,pil_002,002,0.5,1.0,2023-03-22_15h08.01.318,stress,2023.1.0,60.00650470530375,
5,1,2,0,4,3,4,3,5,0,6,6,1,0,1,1,0,324,324,324,up,1,0.6069895999989967,None,,,,pil_002,002,0.5,1.0,2023-03-22_15h08.01.318,stress,2023.1.0,60.00650470530375,
0,4,1,5,2,3,4,0,6,5,0,3,0,0,1,1,0,325,325,325,up,1,1.141041500000938,None,,,,pil_002,002,0.5,1.0,2023-03-22_15h08.01.318,stress,2023.1.0,60.00650470530375,
3,4,5,2,0,1,4,3,6,0,6,0,1,1,0,1,0,326,326,326,left,1,1.0698967000007542,None,,,,pil_002,002,0.5,1.0,2023-03-22_15h08.01.318,stress,2023.1.0,60.00650470530375,
5,3,0,2,1,4,4,6,0,3,5,5,0,1,1,1,0,327,327,327,up,1,0.48863669999991544,None,,,,pil_002,002,0.5,1.0,2023-03-22_15h08.01.318,stress,2023.1.0,60.00650470530375,
2,4,1,0,3,5,4,0,3,5,6,0,1,1,0,1,0,328,328,328,left,1,1.0568174,None,,,,pil_002,002,0.5,1.0,2023-03-22_15h08.01.318,stress,2023.1.0,60.00650470530375,
5,4,0,2,1,3,4,0,3,0,5,6,1,0,1,1,0,329,329,329,up,1,0.6012991000006878,None,,,,pil_002,002,0.5,1.0,2023-03-22_15h08.01.318,stress,2023.1.0,60.00650470530375,
3,4,5,0,2,1,4,0,6,5,3,6,1,0,1,1,0,330,330,330,up,1,1.226175499999954,None,,,,pil_002,002,0.5,1.0,2023-03-22_15h08.01.318,stress,2023.1.0,60.00650470530375,
0,4,1,5,2,3,4,5,0,5,6,3,1,0,1,1,0,331,331,331,up,1,0.7169733000009728,None,,,,pil_002,002,0.5,1.0,2023-03-22_15h08.01.318,stress,2023.1.0,60.00650470530375,
1,2,0,5,3,4,4,5,0,6,3,6,0,1,0,1,0,332,332,332,left,1,1.5682825999992929,None,,,,pil_002,002,0.5,1.0,2023-03-22_15h08.01.318,stress,2023.1.0,60.00650470530375,
5,3,4,0,2,1,4,6,5,3,6,0,0,0,1,1,0,333,333,333,up,1,0.6418771999997261,None,,,,pil_002,002,0.5,1.0,2023-03-22_15h08.01.318,stress,2023.1.0,60.00650470530375,
1,2,3,4,5,0,4,0,3,5,0,6,0,1,0,1,0,334,334,334,left,1,1.5539630000002944,None,,,,pil_002,002,0.5,1.0,2023-03-22_15h08.01.318,stress,2023.1.0,60.00650470530375,
5,3,1,4,2,0,4,5,0,6,5,6,1,1,0,1,0,335,335,335,left,1,0.6257306000006793,None,,,,pil_002,002,0.5,1.0,2023-03-22_15h08.01.318,stress,2023.1.0,60.00650470530375,
4,3,2,5,1,0,4,0,6,6,5,3,0,1,1,1,0,336,336,336,up,1,0.7411451999996643,None,,,,pil_002,002,0.5,1.0,2023-03-22_15h08.01.318,stress,2023.1.0,60.00650470530375,
2,5,3,4,0,1,4,6,5,6,3,5,0,1,0,1,0,337,337,337,left,1,1.5794536000012158,None,,,,pil_002,002,0.5,1.0,2023-03-22_15h08.01.318,stress,2023.1.0,60.00650470530375,
2,1,0,5,4,3,4,6,6,5,3,3,1,0,1,1,0,338,338,338,up,1,0.9325799999987794,None,,,,pil_002,002,0.5,1.0,2023-03-22_15h08.01.318,stress,2023.1.0,60.00650470530375,
5,2,1,0,4,3,4,3,5,5,3,6,0,1,1,1,0,339,339,339,up,1,1.0366341000008106,None,,,,pil_002,002,0.5,1.0,2023-03-22_15h08.01.318,stress,2023.1.0,60.00650470530375,
0,3,2,4,5,1,4,0,5,3,6,0,0,0,0,1,0,340,340,340,left,1,1.118726400000014,None,,,,pil_002,002,0.5,1.0,2023-03-22_15h08.01.318,stress,2023.1.0,60.00650470530375,
4,2,3,1,0,5,4,6,5,0,0,3,0,1,0,1,0,341,341,341,left,1,1.8742677999998705,None,,,,pil_002,002,0.5,1.0,2023-03-22_15h08.01.318,stress,2023.1.0,60.00650470530375,
4,3,5,2,1,0,4,5,5,3,6,0,0,1,1,1,0,342,342,342,up,1,0.6084068000000116,None,,,,pil_002,002,0.5,1.0,2023-03-22_15h08.01.318,stress,2023.1.0,60.00650470530375,
0,4,3,5,1,2,4,6,3,0,3,0,0,0,1,1,0,343,343,343,up,1,1.1446501999998873,None,,,,pil_002,002,0.5,1.0,2023-03-22_15h08.01.318,stress,2023.1.0,60.00650470530375,
2,0,5,3,4,1,4,3,5,6,5,3,1,0,1,1,0,344,344,344,up,1,1.401800200001162,None,,,,pil_002,002,0.5,1.0,2023-03-22_15h08.01.318,stress,2023.1.0,60.00650470530375,
3,0,4,1,2,5,4,0,6,6,3,3,0,1,1,1,0,345,345,345,up,1,0.7442183999992267,None,,,,pil_002,002,0.5,1.0,2023-03-22_15h08.01.318,stress,2023.1.0,60.00650470530375,
3,5,4,0,1,2,4,0,3,0,5,5,1,1,1,1,0,346,346,346,up,1,0.7868725999996968,None,,,,pil_002,002,0.5,1.0,2023-03-22_15h08.01.318,stress,2023.1.0,60.00650470530375,
3,1,0,5,4,2,4,6,0,3,6,5,0,0,0,1,0,347,347,347,left,1,0.7615043000005244,None,,,,pil_002,002,0.5,1.0,2023-03-22_15h08.01.318,stress,2023.1.0,60.00650470530375,
3,4,2,1,5,0,4,0,3,6,5,5,1,0,1,1,0,348,348,348,up,1,0.7884125999989919,None,,,,pil_002,002,0.5,1.0,2023-03-22_15h08.01.318,stress,2023.1.0,60.00650470530375,
2,5,3,4,1,0,4,0,6,0,3,5,0,1,1,1,0,349,349,349,up,1,0.7490115000000515,None,,,,pil_002,002,0.5,1.0,2023-03-22_15h08.01.318,stress,2023.1.0,60.00650470530375,
0,3,5,2,4,1,4,0,5,3,3,5,1,1,0,1,0,350,350,350,left,1,1.0332913000002009,None,,,,pil_002,002,0.5,1.0,2023-03-22_15h08.01.318,stress,2023.1.0,60.00650470530375,
0,1,4,5,2,3,4,5,3,5,0,6,0,1,0,1,0,351,351,351,left,1,0.9546531999985746,None,,,,pil_002,002,0.5,1.0,2023-03-22_15h08.01.318,stress,2023.1.0,60.00650470530375,
4,5,1,3,2,0,4,3,6,5,0,3,0,0,0,1,0,352,352,352,left,1,4.548023500001364,None,,,,pil_002,002,0.5,1.0,2023-03-22_15h08.01.318,stress,2023.1.0,60.00650470530375,
0,5,4,1,3,2,4,5,6,5,6,0,0,1,0,1,0,353,353,353,left,1,1.3133238000009442,None,,,,pil_002,002,0.5,1.0,2023-03-22_15h08.01.318,stress,2023.1.0,60.00650470530375,
0,4,1,2,5,3,4,3,0,6,5,3,1,1,1,1,0,354,354,354,up,1,0.5706897000000026,None,,,,pil_002,002,0.5,1.0,2023-03-22_15h08.01.318,stress,2023.1.0,60.00650470530375,
3,4,5,1,2,0,4,0,3,3,6,0,1,1,1,1,0,355,355,355,up,1,1.0126441000011255,None,,,,pil_002,002,0.5,1.0,2023-03-22_15h08.01.318,stress,2023.1.0,60.00650470530375,
5,4,0,1,3,2,4,5,6,6,3,5,0,0,0,1,0,356,356,356,left,1,1.0272088999990956,None,,,,pil_002,002,0.5,1.0,2023-03-22_15h08.01.318,stress,2023.1.0,60.00650470530375,
4,0,5,3,1,2,4,0,6,6,0,5,0,0,1,1,0,357,357,357,up,1,1.2421657999984745,None,,,,pil_002,002,0.5,1.0,2023-03-22_15h08.01.318,stress,2023.1.0,60.00650470530375,
2,1,4,3,0,5,4,5,6,6,3,0,0,0,0,1,0,358,358,358,left,1,0.9765561999993224,None,,,,pil_002,002,0.5,1.0,2023-03-22_15h08.01.318,stress,2023.1.0,60.00650470530375,
5,2,1,0,3,4,4,3,5,0,0,6,1,1,1,1,0,359,359,359,up,1,0.4383802000011201,space,1.2230505000006815,,,pil_002,002,0.5,1.0,2023-03-22_15h08.01.318,stress,2023.1.0,60.00650470530375,
3,2,5,4,0,1,4,3,3,6,5,6,1,1,0,1,0,360,360,360,left,1,0.8431371999995463,None,,,,pil_002,002,0.5,1.0,2023-03-22_15h08.01.318,stress,2023.1.0,60.00650470530375,
4,1,2,0,5,3,4,0,5,0,5,3,0,1,0,1,0,361,361,361,left,1,1.3196686999999656,None,,,,pil_002,002,0.5,1.0,2023-03-22_15h08.01.318,stress,2023.1.0,60.00650470530375,
5,1,3,4,0,2,4,3,6,0,5,6,1,1,0,1,0,362,362,362,up,0,1.6032986999998684,None,,,,pil_002,002,0.5,1.0,2023-03-22_15h08.01.318,stress,2023.1.0,60.00650470530375,
3,0,1,5,4,2,4,0,3,0,5,6,0,0,0,1,0,363,363,363,left,1,0.803223099999741,None,,,,pil_002,002,0.5,1.0,2023-03-22_15h08.01.318,stress,2023.1.0,60.00650470530375,
4,2,3,5,0,1,4,6,0,5,0,5,1,1,1,1,0,364,364,364,up,1,0.5802266999999119,None,,,,pil_002,002,0.5,1.0,2023-03-22_15h08.01.318,stress,2023.1.0,60.00650470530375,
0,3,5,2,1,4,4,6,3,5,3,0,1,1,0,1,0,365,365,365,left,1,1.1700775999997859,None,,,,pil_002,002,0.5,1.0,2023-03-22_15h08.01.318,stress,2023.1.0,60.00650470530375,
5,2,3,1,4,0,4,0,3,5,6,6,1,0,0,1,0,366,366,366,left,1,0.5708481000001484,None,,,,pil_002,002,0.5,1.0,2023-03-22_15h08.01.318,stress,2023.1.0,60.00650470530375,
3,1,0,2,4,5,4,5,0,6,0,3,1,1,1,1,0,367,367,367,up,1,0.8211257999992085,None,,,,pil_002,002,0.5,1.0,2023-03-22_15h08.01.318,stress,2023.1.0,60.00650470530375,
2,1,3,4,0,5,4,0,5,6,0,3,1,1,1,1,0,368,368,368,up,1,0.9575631000006979,None,,,,pil_002,002,0.5,1.0,2023-03-22_15h08.01.318,stress,2023.1.0,60.00650470530375,
2,5,0,1,4,3,4,3,5,6,5,0,1,0,0,1,0,369,369,369,left,1,1.182841699999699,None,,,,pil_002,002,0.5,1.0,2023-03-22_15h08.01.318,stress,2023.1.0,60.00650470530375,
0,3,5,2,4,1,4,6,0,5,6,3,1,1,0,1,0,370,370,370,left,1,1.0198488000005455,None,,,,pil_002,002,0.5,1.0,2023-03-22_15h08.01.318,stress,2023.1.0,60.00650470530375,
3,2,4,0,1,5,4,3,3,6,6,5,1,0,0,1,0,371,371,371,left,1,0.6938934000008885,None,,,,pil_002,002,0.5,1.0,2023-03-22_15h08.01.318,stress,2023.1.0,60.00650470530375,
1,4,0,3,5,2,4,6,6,0,3,0,1,1,0,1,0,372,372,372,left,1,0.9863595999995596,None,,,,pil_002,002,0.5,1.0,2023-03-22_15h08.01.318,stress,2023.1.0,60.00650470530375,
5,0,1,3,2,4,4,5,3,6,0,0,0,0,1,1,0,373,373,373,up,1,0.5130489000002854,None,,,,pil_002,002,0.5,1.0,2023-03-22_15h08.01.318,stress,2023.1.0,60.00650470530375,
3,0,2,1,5,4,4,5,6,3,6,3,1,1,1,1,0,374,374,374,up,1,0.946672000000035,None,,,,pil_002,002,0.5,1.0,2023-03-22_15h08.01.318,stress,2023.1.0,60.00650470530375,
2,3,5,4,1,0,4,5,3,6,5,0,1,0,0,1,0,375,375,375,left,1,1.8726910000004864,None,,,,pil_002,002,0.5,1.0,2023-03-22_15h08.01.318,stress,2023.1.0,60.00650470530375,
5,2,3,0,1,4,4,5,3,6,3,0,1,0,1,1,0,376,376,376,up,1,1.014425300001676,None,,,,pil_002,002,0.5,1.0,2023-03-22_15h08.01.318,stress,2023.1.0,60.00650470530375,
3,4,5,0,2,1,4,0,3,5,0,6,0,1,0,1,0,377,377,377,left,1,0.6759105000001,None,,,,pil_002,002,0.5,1.0,2023-03-22_15h08.01.318,stress,2023.1.0,60.00650470530375,
4,0,1,2,3,5,4,0,6,6,5,3,1,1,0,1,0,378,378,378,left,1,0.7710898999994242,None,,,,pil_002,002,0.5,1.0,2023-03-22_15h08.01.318,stress,2023.1.0,60.00650470530375,
5,1,4,2,0,3,4,5,6,5,6,0,1,1,0,1,0,379,379,379,left,1,0.5395400000015798,None,,,,pil_002,002,0.5,1.0,2023-03-22_15h08.01.318,stress,2023.1.0,60.00650470530375,
5,4,2,1,3,0,4,0,5,6,0,5,1,1,1,1,0,380,380,380,up,1,0.5259628999992856,None,,,,pil_002,002,0.5,1.0,2023-03-22_15h08.01.318,stress,2023.1.0,60.00650470530375,
1,3,5,2,0,4,4,3,6,0,0,3,1,1,0,1,0,381,381,381,left,1,1.4102874000000156,None,,,,pil_002,002,0.5,1.0,2023-03-22_15h08.01.318,stress,2023.1.0,60.00650470530375,
2,4,0,3,1,5,4,0,5,3,6,0,1,0,1,1,0,382,382,382,up,1,1.1197493999989092,None,,,,pil_002,002,0.5,1.0,2023-03-22_15h08.01.318,stress,2023.1.0,60.00650470530375,
0,3,4,5,2,1,4,0,6,3,5,6,1,1,0,1,0,383,383,383,left,1,0.7357040999995661,None,,,,pil_002,002,0.5,1.0,2023-03-22_15h08.01.318,stress,2023.1.0,60.00650470530375,
5,2,0,1,4,3,4,5,0,3,5,6,0,0,0,1,0,384,384,384,left,1,1.7374779999991006,None,,,,pil_002,002,0.5,1.0,2023-03-22_15h08.01.318,stress,2023.1.0,60.00650470530375,
1,3,0,4,2,5,4,6,5,3,0,0,0,0,1,1,0,385,385,385,up,1,0.8249594999997498,None,,,,pil_002,002,0.5,1.0,2023-03-22_15h08.01.318,stress,2023.1.0,60.00650470530375,
3,4,5,0,2,1,4,3,0,0,3,5,1,0,1,1,0,386,386,386,up,1,1.2380506999998033,None,,,,pil_002,002,0.5,1.0,2023-03-22_15h08.01.318,stress,2023.1.0,60.00650470530375,
5,1,2,0,3,4,4,6,5,0,3,0,0,1,1,1,0,387,387,387,up,1,0.480260599999383,None,,,,pil_002,002,0.5,1.0,2023-03-22_15h08.01.318,stress,2023.1.0,60.00650470530375,
5,3,4,2,1,0,4,6,6,3,3,0,1,0,1,1,0,388,388,388,up,1,0.5146436999984871,None,,,,pil_002,002,0.5,1.0,2023-03-22_15h08.01.318,stress,2023.1.0,60.00650470530375,
3,2,0,1,4,5,4,3,5,5,0,0,0,0,0,1,0,389,389,389,left,1,0.7159642999995413,None,,,,pil_002,002,0.5,1.0,2023-03-22_15h08.01.318,stress,2023.1.0,60.00650470530375,
3,0,5,2,1,4,4,3,6,5,0,5,0,0,1,1,0,390,390,390,up,1,0.8255594999991445,None,,,,pil_002,002,0.5,1.0,2023-03-22_15h08.01.318,stress,2023.1.0,60.00650470530375,
0,2,1,5,4,3,4,3,3,0,6,6,1,1,0,1,0,391,391,391,left,1,1.3990788999999495,None,,,,pil_002,002,0.5,1.0,2023-03-22_15h08.01.318,stress,2023.1.0,60.00650470530375,
3,2,4,0,1,5,4,6,0,5,0,5,1,0,0,1,0,392,392,392,left,1,0.9856142999997246,None,,,,pil_002,002,0.5,1.0,2023-03-22_15h08.01.318,stress,2023.1.0,60.00650470530375,
3,4,0,5,1,2,4,3,5,0,6,6,0,0,0,1,0,393,393,393,left,1,1.9510547000008955,None,,,,pil_002,002,0.5,1.0,2023-03-22_15h08.01.318,stress,2023.1.0,60.00650470530375,
1,2,5,4,3,0,4,5,5,6,3,3,0,0,1,1,0,394,394,394,up,1,1.206383700000515,None,,,,pil_002,002,0.5,1.0,2023-03-22_15h08.01.318,stress,2023.1.0,60.00650470530375,
0,3,2,4,5,1,4,6,3,0,3,5,0,0,1,1,0,395,395,395,up,1,0.9363251000013406,None,,,,pil_002,002,0.5,1.0,2023-03-22_15h08.01.318,stress,2023.1.0,60.00650470530375,
5,0,3,4,1,2,4,6,0,3,3,5,1,0,1,1,0,396,396,396,up,1,0.824115500001426,None,,,,pil_002,002,0.5,1.0,2023-03-22_15h08.01.318,stress,2023.1.0,60.00650470530375,
0,1,2,3,4,5,4,5,3,5,6,0,0,1,1,1,0,397,397,397,up,1,1.2414972000005946,None,,,,pil_002,002,0.5,1.0,2023-03-22_15h08.01.318,stress,2023.1.0,60.00650470530375,
4,5,0,2,3,1,4,3,6,5,0,6,1,1,1,1,0,398,398,398,up,1,0.9071367000015016,None,,,,pil_002,002,0.5,1.0,2023-03-22_15h08.01.318,stress,2023.1.0,60.00650470530375,
1,4,3,2,0,5,4,5,5,0,3,6,0,1,1,1,0,399,399,399,up,1,0.912672600001315,space,1.9218228999998246,,,pil_002,002,0.5,1.0,2023-03-22_15h08.01.318,stress,2023.1.0,60.00650470530375,
,,,,,,,,,,,,,,,,,,,,,,,,,space,53.56148460000077,pil_002,002,0.5,1.0,2023-03-22_15h08.01.318,stress,2023.1.0,60.00650470530375,
