pos1,pos2,pos3,pos4,pos5,pos6,shape1,shape2,shape3,shape4,shape5,shape6,singleton,target_color,target_orientation,cue_validity,trials.thisRepN,trials.thisTrialN,trials.thisN,trials.thisIndex,search_response.keys,search_response.corr,search_response.rt,key_block.keys,key_block.rt,end_key.keys,end_key.rt,participant,session,distractor_prevalence,validity,date,expName,psychopyVersion,frameRate,
5,4,2,3,1,0,4,5,3,0,0,6,0,0,1,1,0,0,0,0,up,1,1.1573018999997657,None,,,,pil_001,001,0.5,1.0,2023-03-22_11h50.44.873,stress,2023.1.0,60.019974647632395,
5,0,3,1,4,2,4,6,5,0,5,0,1,1,1,1,0,1,1,1,up,1,0.9932819000000563,None,,,,pil_001,001,0.5,1.0,2023-03-22_11h50.44.873,stress,2023.1.0,60.019974647632395,
5,4,1,0,3,2,4,6,0,5,3,6,0,1,1,1,0,2,2,2,up,1,0.7271092999999382,None,,,,pil_001,001,0.5,1.0,2023-03-22_11h50.44.873,stress,2023.1.0,60.019974647632395,
3,1,5,0,2,4,4,0,0,6,6,3,0,1,0,1,0,3,3,3,left,1,0.7820090000000164,None,,,,pil_001,001,0.5,1.0,2023-03-22_11h50.44.873,stress,2023.1.0,60.019974647632395,
3,2,5,1,4,0,4,3,0,6,0,5,1,1,0,1,0,4,4,4,left,1,0.6911917000002177,None,,,,pil_001,001,0.5,1.0,2023-03-22_11h50.44.873,stress,2023.1.0,60.019974647632395,
3,4,5,0,1,2,4,3,0,6,5,3,1,0,1,1,0,5,5,5,up,1,0.6783900000000358,None,,,,pil_001,001,0.5,1.0,2023-03-22_11h50.44.873,stress,2023.1.0,60.019974647632395,
2,4,5,3,1,0,4,6,6,0,3,5,1,0,0,1,0,6,6,6,left,1,0.721101400000407,None,,,,pil_001,001,0.5,1.0,2023-03-22_11h50.44.873,stress,2023.1.0,60.019974647632395,
1,2,3,0,4,5,4,5,0,5,6,3,1,1,1,1,0,7,7,7,up,1,1.048092799999722,None,,,,pil_001,001,0.5,1.0,2023-03-22_11h50.44.873,stress,2023.1.0,60.019974647632395,
4,1,2,0,3,5,4,0,6,0,6,5,0,1,0,1,0,8,8,8,left,1,0.7515064999997776,None,,,,pil_001,001,0.5,1.0,2023-03-22_11h50.44.873,stress,2023.1.0,60.019974647632395,
5,1,0,2,4,3,4,6,0,6,3,3,1,0,0,1,0,9,9,9,left,1,0.9344630999999026,None,,,,pil_001,001,0.5,1.0,2023-03-22_11h50.44.873,stress,2023.1.0,60.019974647632395,
5,3,0,4,2,1,4,3,6,0,0,3,0,1,0,1,0,10,10,10,left,1,1.1746917000000394,None,,,,pil_001,001,0.5,1.0,2023-03-22_11h50.44.873,stress,2023.1.0,60.019974647632395,
4,2,5,3,1,0,4,6,0,5,5,3,1,0,0,1,0,11,11,11,left,1,0.807506099999955,None,,,,pil_001,001,0.5,1.0,2023-03-22_11h50.44.873,stress,2023.1.0,60.019974647632395,
4,5,0,3,2,1,4,6,5,6,5,0,0,1,0,1,0,12,12,12,left,1,0.6462713999999323,None,,,,pil_001,001,0.5,1.0,2023-03-22_11h50.44.873,stress,2023.1.0,60.019974647632395,
4,2,1,0,3,5,4,0,6,5,0,3,1,1,0,1,0,13,13,13,left,1,0.48207830000001195,None,,,,pil_001,001,0.5,1.0,2023-03-22_11h50.44.873,stress,2023.1.0,60.019974647632395,
5,1,0,2,3,4,4,0,6,6,3,5,1,1,0,1,0,14,14,14,left,1,0.7353551999999581,None,,,,pil_001,001,0.5,1.0,2023-03-22_11h50.44.873,stress,2023.1.0,60.019974647632395,
0,5,2,4,3,1,4,6,3,3,5,6,1,1,0,1,0,15,15,15,left,1,0.7078840999997738,None,,,,pil_001,001,0.5,1.0,2023-03-22_11h50.44.873,stress,2023.1.0,60.019974647632395,
3,1,5,4,2,0,4,6,0,3,5,0,0,1,1,1,0,16,16,16,up,1,0.7911088999999265,None,,,,pil_001,001,0.5,1.0,2023-03-22_11h50.44.873,stress,2023.1.0,60.019974647632395,
4,0,3,5,1,2,4,5,6,0,5,3,0,0,1,1,0,17,17,17,up,1,0.77852699999994,None,,,,pil_001,001,0.5,1.0,2023-03-22_11h50.44.873,stress,2023.1.0,60.019974647632395,
3,0,1,2,4,5,4,0,6,3,0,6,1,1,1,1,0,18,18,18,up,1,0.5425083999998606,None,,,,pil_001,001,0.5,1.0,2023-03-22_11h50.44.873,stress,2023.1.0,60.019974647632395,
0,1,5,4,2,3,4,6,0,5,5,3,1,1,1,1,0,19,19,19,up,1,0.6543742999997448,None,,,,pil_001,001,0.5,1.0,2023-03-22_11h50.44.873,stress,2023.1.0,60.019974647632395,
0,5,1,2,4,3,4,5,0,3,3,6,0,1,0,1,0,20,20,20,left,1,0.6971859000000222,None,,,,pil_001,001,0.5,1.0,2023-03-22_11h50.44.873,stress,2023.1.0,60.019974647632395,
0,2,3,1,4,5,4,0,3,6,6,5,0,1,0,1,0,21,21,21,left,1,0.6206035999998676,None,,,,pil_001,001,0.5,1.0,2023-03-22_11h50.44.873,stress,2023.1.0,60.019974647632395,
0,3,1,4,5,2,4,3,0,0,3,6,1,1,1,1,0,22,22,22,up,1,0.5625305999997181,None,,,,pil_001,001,0.5,1.0,2023-03-22_11h50.44.873,stress,2023.1.0,60.019974647632395,
0,4,3,5,2,1,4,6,3,0,5,3,0,0,1,1,0,23,23,23,up,1,0.5451898000001165,None,,,,pil_001,001,0.5,1.0,2023-03-22_11h50.44.873,stress,2023.1.0,60.019974647632395,
3,1,2,5,0,4,4,6,0,0,5,3,0,1,0,1,0,24,24,24,left,1,0.8781035000001793,None,,,,pil_001,001,0.5,1.0,2023-03-22_11h50.44.873,stress,2023.1.0,60.019974647632395,
0,5,2,3,4,1,4,0,6,0,3,6,1,0,1,1,0,25,25,25,up,1,0.6613248000003296,None,,,,pil_001,001,0.5,1.0,2023-03-22_11h50.44.873,stress,2023.1.0,60.019974647632395,
2,1,4,5,3,0,4,3,5,6,6,3,1,1,1,1,0,26,26,26,up,1,0.7810542000001988,None,,,,pil_001,001,0.5,1.0,2023-03-22_11h50.44.873,stress,2023.1.0,60.019974647632395,
4,5,3,1,2,0,4,3,5,6,6,3,0,0,1,1,0,27,27,27,up,1,0.7891214999999647,None,,,,pil_001,001,0.5,1.0,2023-03-22_11h50.44.873,stress,2023.1.0,60.019974647632395,
5,0,4,2,1,3,4,5,3,6,3,0,0,1,1,1,0,28,28,28,up,1,1.314087599999766,None,,,,pil_001,001,0.5,1.0,2023-03-22_11h50.44.873,stress,2023.1.0,60.019974647632395,
4,1,0,5,3,2,4,3,5,5,3,6,0,0,0,1,0,29,29,29,left,1,0.9366420999999718,space,7.4347170000000915,,,pil_001,001,0.5,1.0,2023-03-22_11h50.44.873,stress,2023.1.0,60.019974647632395,
2,5,4,3,0,1,4,5,0,5,3,6,0,1,1,1,0,30,30,30,up,1,0.7118061999999554,None,,,,pil_001,001,0.5,1.0,2023-03-22_11h50.44.873,stress,2023.1.0,60.019974647632395,
1,5,0,4,3,2,4,0,6,3,3,6,0,0,1,1,0,31,31,31,up,1,0.64493259999972,None,,,,pil_001,001,0.5,1.0,2023-03-22_11h50.44.873,stress,2023.1.0,60.019974647632395,
2,0,1,5,3,4,4,6,0,0,3,5,0,1,0,1,0,32,32,32,left,1,0.6462269000003289,None,,,,pil_001,001,0.5,1.0,2023-03-22_11h50.44.873,stress,2023.1.0,60.019974647632395,
3,4,1,2,0,5,4,0,6,5,3,6,0,1,0,1,0,33,33,33,left,1,0.6367797999996583,None,,,,pil_001,001,0.5,1.0,2023-03-22_11h50.44.873,stress,2023.1.0,60.019974647632395,
0,2,3,5,1,4,4,5,5,6,3,0,1,0,0,1,0,34,34,34,left,1,1.1660329000001184,None,,,,pil_001,001,0.5,1.0,2023-03-22_11h50.44.873,stress,2023.1.0,60.019974647632395,
0,5,4,1,2,3,4,3,6,5,0,3,1,1,1,1,0,35,35,35,up,1,1.6098769000000175,None,,,,pil_001,001,0.5,1.0,2023-03-22_11h50.44.873,stress,2023.1.0,60.019974647632395,
5,4,1,3,2,0,4,0,3,6,0,3,0,1,0,1,0,36,36,36,left,1,2.5332416999999623,None,,,,pil_001,001,0.5,1.0,2023-03-22_11h50.44.873,stress,2023.1.0,60.019974647632395,
1,3,4,5,2,0,4,6,3,5,5,3,0,1,1,1,0,37,37,37,up,1,0.9490187000001242,None,,,,pil_001,001,0.5,1.0,2023-03-22_11h50.44.873,stress,2023.1.0,60.019974647632395,
4,5,1,0,3,2,4,5,3,0,0,6,0,0,0,1,0,38,38,38,left,1,0.807260000000042,None,,,,pil_001,001,0.5,1.0,2023-03-22_11h50.44.873,stress,2023.1.0,60.019974647632395,
2,4,0,1,3,5,4,0,6,0,5,6,1,0,0,1,0,39,39,39,left,1,1.7933192999998937,None,,,,pil_001,001,0.5,1.0,2023-03-22_11h50.44.873,stress,2023.1.0,60.019974647632395,
0,5,2,1,3,4,4,0,6,0,3,3,1,1,1,1,0,40,40,40,up,1,0.9688289999999142,None,,,,pil_001,001,0.5,1.0,2023-03-22_11h50.44.873,stress,2023.1.0,60.019974647632395,
3,5,4,0,2,1,4,0,0,6,3,5,1,0,0,1,0,41,41,41,left,1,0.6534341000001405,None,,,,pil_001,001,0.5,1.0,2023-03-22_11h50.44.873,stress,2023.1.0,60.019974647632395,
0,5,2,1,4,3,4,3,0,0,5,6,1,0,0,1,0,42,42,42,up,0,1.105750000000171,None,,,,pil_001,001,0.5,1.0,2023-03-22_11h50.44.873,stress,2023.1.0,60.019974647632395,
1,4,2,5,0,3,4,3,6,5,0,0,0,0,0,1,0,43,43,43,left,1,1.0806520000001,None,,,,pil_001,001,0.5,1.0,2023-03-22_11h50.44.873,stress,2023.1.0,60.019974647632395,
3,4,1,0,2,5,4,3,6,5,6,5,0,1,0,1,0,44,44,44,left,1,1.1637418000000253,None,,,,pil_001,001,0.5,1.0,2023-03-22_11h50.44.873,stress,2023.1.0,60.019974647632395,
4,1,5,0,3,2,4,0,6,3,0,3,0,1,1,1,0,45,45,45,up,1,0.8821404999998776,None,,,,pil_001,001,0.5,1.0,2023-03-22_11h50.44.873,stress,2023.1.0,60.019974647632395,
0,5,1,2,3,4,4,3,0,5,6,0,0,0,0,1,0,46,46,46,up,0,1.4570068999996693,None,,,,pil_001,001,0.5,1.0,2023-03-22_11h50.44.873,stress,2023.1.0,60.019974647632395,
2,4,0,1,5,3,4,6,3,6,5,5,0,1,1,1,0,47,47,47,up,1,1.0800406000003022,None,,,,pil_001,001,0.5,1.0,2023-03-22_11h50.44.873,stress,2023.1.0,60.019974647632395,
4,5,2,3,0,1,4,6,0,6,0,3,1,0,0,1,0,48,48,48,left,1,0.643217100000129,None,,,,pil_001,001,0.5,1.0,2023-03-22_11h50.44.873,stress,2023.1.0,60.019974647632395,
1,2,5,4,3,0,4,3,0,6,5,6,0,0,1,1,0,49,49,49,up,1,1.0688390000000254,None,,,,pil_001,001,0.5,1.0,2023-03-22_11h50.44.873,stress,2023.1.0,60.019974647632395,
5,4,3,0,1,2,4,6,0,6,3,5,0,0,1,1,0,50,50,50,up,1,1.2943013999997675,None,,,,pil_001,001,0.5,1.0,2023-03-22_11h50.44.873,stress,2023.1.0,60.019974647632395,
4,5,2,3,0,1,4,5,3,0,6,5,1,0,0,1,0,51,51,51,left,1,0.7716507000000092,None,,,,pil_001,001,0.5,1.0,2023-03-22_11h50.44.873,stress,2023.1.0,60.019974647632395,
1,0,4,5,2,3,4,5,3,5,3,6,1,0,1,1,0,52,52,52,up,1,0.9850486000000274,None,,,,pil_001,001,0.5,1.0,2023-03-22_11h50.44.873,stress,2023.1.0,60.019974647632395,
3,0,1,4,2,5,4,0,3,5,5,0,1,0,0,1,0,53,53,53,left,1,0.7864786000000095,None,,,,pil_001,001,0.5,1.0,2023-03-22_11h50.44.873,stress,2023.1.0,60.019974647632395,
0,1,4,2,3,5,4,5,6,6,3,0,1,0,1,1,0,54,54,54,up,1,0.6078514000000723,None,,,,pil_001,001,0.5,1.0,2023-03-22_11h50.44.873,stress,2023.1.0,60.019974647632395,
0,5,4,3,2,1,4,6,6,3,5,5,1,1,0,1,0,55,55,55,left,1,0.9375133999997161,None,,,,pil_001,001,0.5,1.0,2023-03-22_11h50.44.873,stress,2023.1.0,60.019974647632395,
3,5,0,2,4,1,4,3,6,0,0,6,1,0,0,1,0,56,56,56,left,1,0.6845816999998533,None,,,,pil_001,001,0.5,1.0,2023-03-22_11h50.44.873,stress,2023.1.0,60.019974647632395,
4,3,1,2,0,5,4,0,3,6,5,0,0,1,1,1,0,57,57,57,up,1,0.8605975000000399,None,,,,pil_001,001,0.5,1.0,2023-03-22_11h50.44.873,stress,2023.1.0,60.019974647632395,
0,3,5,1,4,2,4,3,5,3,5,6,1,0,0,1,0,58,58,58,left,1,0.6487327999998342,None,,,,pil_001,001,0.5,1.0,2023-03-22_11h50.44.873,stress,2023.1.0,60.019974647632395,
2,3,1,0,5,4,4,6,3,5,3,5,1,1,0,1,0,59,59,59,left,1,1.3185628000001088,space,49.42538749999994,,,pil_001,001,0.5,1.0,2023-03-22_11h50.44.873,stress,2023.1.0,60.019974647632395,
3,1,2,0,4,5,4,6,0,5,0,3,0,1,1,1,0,60,60,60,up,1,1.1398466000000553,None,,,,pil_001,001,0.5,1.0,2023-03-22_11h50.44.873,stress,2023.1.0,60.019974647632395,
0,4,1,5,2,3,4,6,6,0,0,5,0,1,0,1,0,61,61,61,left,1,1.374331799999709,None,,,,pil_001,001,0.5,1.0,2023-03-22_11h50.44.873,stress,2023.1.0,60.019974647632395,
0,1,5,4,2,3,4,3,5,6,0,3,0,0,1,1,0,62,62,62,up,1,0.5963708999997834,None,,,,pil_001,001,0.5,1.0,2023-03-22_11h50.44.873,stress,2023.1.0,60.019974647632395,
3,5,4,0,2,1,4,6,0,6,3,5,1,1,0,1,0,63,63,63,left,1,0.7300169000000096,None,,,,pil_001,001,0.5,1.0,2023-03-22_11h50.44.873,stress,2023.1.0,60.019974647632395,
2,4,5,1,3,0,4,3,0,5,5,3,0,1,1,1,0,64,64,64,up,1,0.7357837999998083,None,,,,pil_001,001,0.5,1.0,2023-03-22_11h50.44.873,stress,2023.1.0,60.019974647632395,
2,1,0,3,4,5,4,6,0,5,0,3,0,0,0,1,0,65,65,65,left,1,0.8437264999997751,None,,,,pil_001,001,0.5,1.0,2023-03-22_11h50.44.873,stress,2023.1.0,60.019974647632395,
2,0,5,3,4,1,4,3,0,6,0,3,1,0,0,1,0,66,66,66,left,1,0.7109502000002976,None,,,,pil_001,001,0.5,1.0,2023-03-22_11h50.44.873,stress,2023.1.0,60.019974647632395,
1,3,4,0,2,5,4,5,6,3,0,0,1,1,0,1,0,67,67,67,left,1,1.4418680000003405,None,,,,pil_001,001,0.5,1.0,2023-03-22_11h50.44.873,stress,2023.1.0,60.019974647632395,
2,4,0,1,3,5,4,3,5,0,0,5,1,1,1,1,0,68,68,68,up,1,0.6789144999997916,None,,,,pil_001,001,0.5,1.0,2023-03-22_11h50.44.873,stress,2023.1.0,60.019974647632395,
3,2,4,1,0,5,4,5,3,6,5,3,1,0,1,1,0,69,69,69,up,1,0.663880699999936,None,,,,pil_001,001,0.5,1.0,2023-03-22_11h50.44.873,stress,2023.1.0,60.019974647632395,
0,5,2,4,3,1,4,5,0,6,6,0,0,0,1,1,0,70,70,70,up,1,0.6577379000000292,None,,,,pil_001,001,0.5,1.0,2023-03-22_11h50.44.873,stress,2023.1.0,60.019974647632395,
4,0,1,3,2,5,4,6,3,6,5,5,1,0,1,1,0,71,71,71,up,1,1.9362600000004022,None,,,,pil_001,001,0.5,1.0,2023-03-22_11h50.44.873,stress,2023.1.0,60.019974647632395,
5,4,2,0,1,3,4,0,6,3,3,5,0,1,0,1,0,72,72,72,left,1,1.4897467999999208,None,,,,pil_001,001,0.5,1.0,2023-03-22_11h50.44.873,stress,2023.1.0,60.019974647632395,
3,4,2,1,5,0,4,6,5,5,3,0,1,0,0,1,0,73,73,73,left,1,0.8063928999999916,None,,,,pil_001,001,0.5,1.0,2023-03-22_11h50.44.873,stress,2023.1.0,60.019974647632395,
0,3,1,4,2,5,4,0,3,5,3,5,1,0,0,1,0,74,74,74,left,1,1.5882523999998739,None,,,,pil_001,001,0.5,1.0,2023-03-22_11h50.44.873,stress,2023.1.0,60.019974647632395,
3,1,0,2,4,5,4,6,3,0,5,3,1,1,1,1,0,75,75,75,up,1,0.6800142999995842,None,,,,pil_001,001,0.5,1.0,2023-03-22_11h50.44.873,stress,2023.1.0,60.019974647632395,
5,1,2,4,0,3,4,3,5,3,5,6,0,1,0,1,0,76,76,76,up,0,1.279286100000263,None,,,,pil_001,001,0.5,1.0,2023-03-22_11h50.44.873,stress,2023.1.0,60.019974647632395,
3,0,5,1,4,2,4,5,6,0,5,0,1,1,0,1,0,77,77,77,left,1,0.7660660000001371,None,,,,pil_001,001,0.5,1.0,2023-03-22_11h50.44.873,stress,2023.1.0,60.019974647632395,
3,0,5,2,4,1,4,5,3,6,0,6,0,1,1,1,0,78,78,78,up,1,0.4669337000000269,None,,,,pil_001,001,0.5,1.0,2023-03-22_11h50.44.873,stress,2023.1.0,60.019974647632395,
2,0,3,5,1,4,4,3,5,3,0,6,1,1,1,1,0,79,79,79,up,1,0.9850148000000445,None,,,,pil_001,001,0.5,1.0,2023-03-22_11h50.44.873,stress,2023.1.0,60.019974647632395,
4,3,1,0,2,5,4,5,6,0,0,3,1,0,1,1,0,80,80,80,up,1,0.8556816000000254,None,,,,pil_001,001,0.5,1.0,2023-03-22_11h50.44.873,stress,2023.1.0,60.019974647632395,
3,1,0,5,4,2,4,0,6,0,3,3,1,0,1,1,0,81,81,81,up,1,0.6264202999996087,None,,,,pil_001,001,0.5,1.0,2023-03-22_11h50.44.873,stress,2023.1.0,60.019974647632395,
4,0,1,3,5,2,4,5,5,0,6,3,1,1,0,1,0,82,82,82,left,1,0.8913461000001917,None,,,,pil_001,001,0.5,1.0,2023-03-22_11h50.44.873,stress,2023.1.0,60.019974647632395,
3,0,5,4,1,2,4,6,3,0,0,3,0,1,1,1,0,83,83,83,up,1,0.6086981999997079,None,,,,pil_001,001,0.5,1.0,2023-03-22_11h50.44.873,stress,2023.1.0,60.019974647632395,
2,5,3,1,0,4,4,5,0,3,6,0,0,1,0,1,0,84,84,84,left,1,0.705856600000061,None,,,,pil_001,001,0.5,1.0,2023-03-22_11h50.44.873,stress,2023.1.0,60.019974647632395,
1,5,0,4,2,3,4,5,0,3,6,5,1,1,1,1,0,85,85,85,up,1,1.1478363000001082,None,,,,pil_001,001,0.5,1.0,2023-03-22_11h50.44.873,stress,2023.1.0,60.019974647632395,
3,4,2,5,1,0,4,3,6,5,5,0,1,0,0,1,0,86,86,86,left,1,1.4909976999997525,None,,,,pil_001,001,0.5,1.0,2023-03-22_11h50.44.873,stress,2023.1.0,60.019974647632395,
1,2,3,0,4,5,4,6,0,5,6,3,1,0,0,1,0,87,87,87,left,1,1.3927708000001076,None,,,,pil_001,001,0.5,1.0,2023-03-22_11h50.44.873,stress,2023.1.0,60.019974647632395,
3,5,2,0,1,4,4,3,6,0,0,6,1,0,1,1,0,88,88,88,up,1,0.7690612999999757,None,,,,pil_001,001,0.5,1.0,2023-03-22_11h50.44.873,stress,2023.1.0,60.019974647632395,
2,4,3,0,1,5,4,3,0,3,0,5,1,0,0,1,0,89,89,89,left,1,1.0255813999997372,space,5.039209300000039,,,pil_001,001,0.5,1.0,2023-03-22_11h50.44.873,stress,2023.1.0,60.019974647632395,
1,3,2,5,0,4,4,6,0,3,5,0,0,0,1,1,0,90,90,90,up,1,1.203512900000078,None,,,,pil_001,001,0.5,1.0,2023-03-22_11h50.44.873,stress,2023.1.0,60.019974647632395,
4,5,3,0,1,2,4,6,0,5,0,3,1,0,1,1,0,91,91,91,up,1,0.7758208000000195,None,,,,pil_001,001,0.5,1.0,2023-03-22_11h50.44.873,stress,2023.1.0,60.019974647632395,
5,2,1,0,3,4,4,6,3,6,3,5,0,0,1,1,0,92,92,92,up,1,0.7580662000000302,None,,,,pil_001,001,0.5,1.0,2023-03-22_11h50.44.873,stress,2023.1.0,60.019974647632395,
5,0,3,2,1,4,4,6,3,3,0,5,0,0,1,1,0,93,93,93,up,1,1.1090300999999272,None,,,,pil_001,001,0.5,1.0,2023-03-22_11h50.44.873,stress,2023.1.0,60.019974647632395,
5,1,3,0,2,4,4,5,3,0,0,3,0,1,1,1,0,94,94,94,up,1,0.5901219999996101,None,,,,pil_001,001,0.5,1.0,2023-03-22_11h50.44.873,stress,2023.1.0,60.019974647632395,
2,3,0,4,1,5,4,5,6,5,6,0,1,1,1,1,0,95,95,95,up,1,0.6576678999999785,None,,,,pil_001,001,0.5,1.0,2023-03-22_11h50.44.873,stress,2023.1.0,60.019974647632395,
1,5,4,0,3,2,4,0,3,6,0,5,0,0,1,1,0,96,96,96,up,1,0.833094500000243,None,,,,pil_001,001,0.5,1.0,2023-03-22_11h50.44.873,stress,2023.1.0,60.019974647632395,
2,0,5,3,4,1,4,6,5,5,3,0,1,0,1,1,0,97,97,97,up,1,0.88417040000013,None,,,,pil_001,001,0.5,1.0,2023-03-22_11h50.44.873,stress,2023.1.0,60.019974647632395,
2,5,3,0,4,1,4,5,0,0,3,3,0,0,0,1,0,98,98,98,left,1,0.7652328999997735,None,,,,pil_001,001,0.5,1.0,2023-03-22_11h50.44.873,stress,2023.1.0,60.019974647632395,
0,1,5,2,4,3,4,3,3,0,0,5,1,1,0,1,0,99,99,99,left,1,1.3516101999998682,None,,,,pil_001,001,0.5,1.0,2023-03-22_11h50.44.873,stress,2023.1.0,60.019974647632395,
1,5,2,3,0,4,4,6,6,3,0,3,0,1,1,1,0,100,100,100,up,1,1.1542997000001378,None,,,,pil_001,001,0.5,1.0,2023-03-22_11h50.44.873,stress,2023.1.0,60.019974647632395,
4,2,3,0,5,1,4,3,5,0,6,6,1,1,0,1,0,101,101,101,left,1,2.016573900000367,None,,,,pil_001,001,0.5,1.0,2023-03-22_11h50.44.873,stress,2023.1.0,60.019974647632395,
3,2,0,1,5,4,4,5,0,3,5,0,1,0,0,1,0,102,102,102,up,0,1.0651629999997567,None,,,,pil_001,001,0.5,1.0,2023-03-22_11h50.44.873,stress,2023.1.0,60.019974647632395,
4,2,1,0,5,3,4,6,6,5,3,0,1,0,0,1,0,103,103,103,left,1,1.9233679000003576,None,,,,pil_001,001,0.5,1.0,2023-03-22_11h50.44.873,stress,2023.1.0,60.019974647632395,
0,3,1,2,5,4,4,3,5,6,0,6,0,1,0,1,0,104,104,104,left,1,1.8655344999997396,None,,,,pil_001,001,0.5,1.0,2023-03-22_11h50.44.873,stress,2023.1.0,60.019974647632395,
4,1,0,2,5,3,4,3,6,0,3,5,1,0,0,1,0,105,105,105,left,1,1.2339047000000392,None,,,,pil_001,001,0.5,1.0,2023-03-22_11h50.44.873,stress,2023.1.0,60.019974647632395,
2,4,3,5,1,0,4,6,6,0,5,3,0,0,1,1,0,106,106,106,up,1,0.8244369999997616,None,,,,pil_001,001,0.5,1.0,2023-03-22_11h50.44.873,stress,2023.1.0,60.019974647632395,
0,3,4,5,2,1,4,5,3,0,5,3,0,1,0,1,0,107,107,107,left,1,1.6844302000004063,None,,,,pil_001,001,0.5,1.0,2023-03-22_11h50.44.873,stress,2023.1.0,60.019974647632395,
3,1,0,5,2,4,4,3,0,6,5,0,1,0,0,1,0,108,108,108,left,1,0.903113399999711,None,,,,pil_001,001,0.5,1.0,2023-03-22_11h50.44.873,stress,2023.1.0,60.019974647632395,
2,3,1,4,0,5,4,3,0,6,6,5,0,0,1,1,0,109,109,109,up,1,1.1651390999995783,None,,,,pil_001,001,0.5,1.0,2023-03-22_11h50.44.873,stress,2023.1.0,60.019974647632395,
1,4,3,2,0,5,4,3,5,0,5,0,1,0,0,1,0,110,110,110,up,0,1.198887399999876,None,,,,pil_001,001,0.5,1.0,2023-03-22_11h50.44.873,stress,2023.1.0,60.019974647632395,
4,1,2,0,3,5,4,6,5,3,3,0,1,1,1,1,0,111,111,111,up,1,1.5009451000000809,None,,,,pil_001,001,0.5,1.0,2023-03-22_11h50.44.873,stress,2023.1.0,60.019974647632395,
3,0,2,1,5,4,4,5,0,5,6,3,0,0,1,1,0,112,112,112,up,1,0.7397747999998501,None,,,,pil_001,001,0.5,1.0,2023-03-22_11h50.44.873,stress,2023.1.0,60.019974647632395,
4,1,2,5,3,0,4,5,6,0,3,5,0,0,1,1,0,113,113,113,up,1,0.9012489000001551,None,,,,pil_001,001,0.5,1.0,2023-03-22_11h50.44.873,stress,2023.1.0,60.019974647632395,
5,0,4,3,2,1,4,5,6,5,3,0,1,1,1,1,0,114,114,114,up,1,1.0155674000002364,None,,,,pil_001,001,0.5,1.0,2023-03-22_11h50.44.873,stress,2023.1.0,60.019974647632395,
3,5,2,0,4,1,4,3,6,3,5,5,0,0,1,1,0,115,115,115,up,1,1.9202454999999645,None,,,,pil_001,001,0.5,1.0,2023-03-22_11h50.44.873,stress,2023.1.0,60.019974647632395,
3,4,2,5,0,1,4,3,6,3,0,5,1,0,0,1,0,116,116,116,left,1,0.7916092999998909,None,,,,pil_001,001,0.5,1.0,2023-03-22_11h50.44.873,stress,2023.1.0,60.019974647632395,
4,3,1,2,0,5,4,3,6,0,5,0,0,1,1,1,0,117,117,117,up,1,1.2025715999998283,None,,,,pil_001,001,0.5,1.0,2023-03-22_11h50.44.873,stress,2023.1.0,60.019974647632395,
1,2,5,4,0,3,4,5,6,6,0,3,0,0,1,1,0,118,118,118,up,1,1.2745850999999675,None,,,,pil_001,001,0.5,1.0,2023-03-22_11h50.44.873,stress,2023.1.0,60.019974647632395,
3,1,0,4,2,5,4,3,5,3,0,6,1,1,1,1,0,119,119,119,up,1,0.7826239999999416,space,8.09832520000009,,,pil_001,001,0.5,1.0,2023-03-22_11h50.44.873,stress,2023.1.0,60.019974647632395,
2,1,3,4,5,0,4,0,0,3,5,3,0,1,1,1,0,120,120,120,up,1,0.8145443999997042,None,,,,pil_001,001,0.5,1.0,2023-03-22_11h50.44.873,stress,2023.1.0,60.019974647632395,
3,2,0,5,4,1,4,6,6,0,5,0,1,1,1,1,0,121,121,121,up,1,0.5276180999999269,None,,,,pil_001,001,0.5,1.0,2023-03-22_11h50.44.873,stress,2023.1.0,60.019974647632395,
4,0,5,1,2,3,4,5,3,3,0,5,0,1,0,1,0,122,122,122,left,1,1.745669600000383,None,,,,pil_001,001,0.5,1.0,2023-03-22_11h50.44.873,stress,2023.1.0,60.019974647632395,
0,2,4,5,3,1,4,5,5,3,0,3,1,0,1,1,0,123,123,123,up,1,1.1803195000002233,None,,,,pil_001,001,0.5,1.0,2023-03-22_11h50.44.873,stress,2023.1.0,60.019974647632395,
4,5,2,0,1,3,4,3,0,3,6,5,0,0,1,1,0,124,124,124,up,1,0.8952583000000232,None,,,,pil_001,001,0.5,1.0,2023-03-22_11h50.44.873,stress,2023.1.0,60.019974647632395,
0,3,2,1,4,5,4,3,6,0,3,0,1,1,0,1,0,125,125,125,left,1,2.0310388000002604,None,,,,pil_001,001,0.5,1.0,2023-03-22_11h50.44.873,stress,2023.1.0,60.019974647632395,
1,4,2,5,3,0,4,5,0,0,6,3,0,1,1,1,0,126,126,126,up,1,0.7209923000000344,None,,,,pil_001,001,0.5,1.0,2023-03-22_11h50.44.873,stress,2023.1.0,60.019974647632395,
0,4,3,5,1,2,4,6,3,5,3,6,1,0,0,1,0,127,127,127,left,1,0.8340392999998585,None,,,,pil_001,001,0.5,1.0,2023-03-22_11h50.44.873,stress,2023.1.0,60.019974647632395,
3,0,4,2,1,5,4,6,3,5,0,3,0,1,1,1,0,128,128,128,up,1,0.6456898000001274,None,,,,pil_001,001,0.5,1.0,2023-03-22_11h50.44.873,stress,2023.1.0,60.019974647632395,
1,0,2,3,5,4,4,6,6,5,0,0,1,0,0,1,0,129,129,129,left,1,1.0075655999999071,None,,,,pil_001,001,0.5,1.0,2023-03-22_11h50.44.873,stress,2023.1.0,60.019974647632395,
1,2,3,0,5,4,4,3,5,5,6,0,0,0,0,1,0,130,130,130,left,1,1.2655735999996978,None,,,,pil_001,001,0.5,1.0,2023-03-22_11h50.44.873,stress,2023.1.0,60.019974647632395,
5,0,4,2,3,1,4,3,5,5,0,0,0,0,0,1,0,131,131,131,left,1,1.1983566999997493,None,,,,pil_001,001,0.5,1.0,2023-03-22_11h50.44.873,stress,2023.1.0,60.019974647632395,
3,5,4,1,0,2,4,6,3,0,3,0,0,1,1,1,0,132,132,132,up,1,0.7519477999999253,None,,,,pil_001,001,0.5,1.0,2023-03-22_11h50.44.873,stress,2023.1.0,60.019974647632395,
5,1,4,0,2,3,4,6,3,0,5,0,0,1,1,1,0,133,133,133,up,1,1.06589299999996,None,,,,pil_001,001,0.5,1.0,2023-03-22_11h50.44.873,stress,2023.1.0,60.019974647632395,
4,3,2,5,1,0,4,5,3,6,0,0,0,1,1,1,0,134,134,134,up,1,0.980411400000321,None,,,,pil_001,001,0.5,1.0,2023-03-22_11h50.44.873,stress,2023.1.0,60.019974647632395,
0,3,1,4,5,2,4,0,5,0,5,3,1,0,1,1,0,135,135,135,up,1,0.9231853000001138,None,,,,pil_001,001,0.5,1.0,2023-03-22_11h50.44.873,stress,2023.1.0,60.019974647632395,
5,3,2,4,0,1,4,3,0,6,6,5,1,1,0,1,0,136,136,136,left,1,0.9251520000002529,None,,,,pil_001,001,0.5,1.0,2023-03-22_11h50.44.873,stress,2023.1.0,60.019974647632395,
3,4,5,1,2,0,4,5,0,3,0,5,0,1,1,1,0,137,137,137,left,0,0.9407560999998168,None,,,,pil_001,001,0.5,1.0,2023-03-22_11h50.44.873,stress,2023.1.0,60.019974647632395,
2,4,1,5,3,0,4,6,3,0,5,3,0,0,0,1,0,138,138,138,left,1,0.9829855000002681,None,,,,pil_001,001,0.5,1.0,2023-03-22_11h50.44.873,stress,2023.1.0,60.019974647632395,
4,3,1,0,2,5,4,6,5,0,3,3,0,1,0,1,0,139,139,139,left,1,1.1386453999998594,None,,,,pil_001,001,0.5,1.0,2023-03-22_11h50.44.873,stress,2023.1.0,60.019974647632395,
4,3,1,5,0,2,4,5,3,6,0,0,1,1,1,1,0,140,140,140,up,1,1.2092525000002752,None,,,,pil_001,001,0.5,1.0,2023-03-22_11h50.44.873,stress,2023.1.0,60.019974647632395,
5,1,2,3,0,4,4,3,6,5,3,0,1,0,1,1,0,141,141,141,up,1,1.8523215000000164,None,,,,pil_001,001,0.5,1.0,2023-03-22_11h50.44.873,stress,2023.1.0,60.019974647632395,
5,1,4,2,0,3,4,0,5,3,3,6,1,1,0,1,0,142,142,142,left,1,2.1545310999999856,None,,,,pil_001,001,0.5,1.0,2023-03-22_11h50.44.873,stress,2023.1.0,60.019974647632395,
2,4,3,0,5,1,4,0,3,0,5,5,0,0,1,1,0,143,143,143,up,1,1.0164804999999433,None,,,,pil_001,001,0.5,1.0,2023-03-22_11h50.44.873,stress,2023.1.0,60.019974647632395,
1,3,0,2,4,5,4,3,0,6,6,0,0,0,1,1,0,144,144,144,up,1,1.746772399999827,None,,,,pil_001,001,0.5,1.0,2023-03-22_11h50.44.873,stress,2023.1.0,60.019974647632395,
2,0,1,4,3,5,4,3,0,6,5,5,0,0,1,1,0,145,145,145,up,1,0.8539499000003161,None,,,,pil_001,001,0.5,1.0,2023-03-22_11h50.44.873,stress,2023.1.0,60.019974647632395,
3,0,1,2,5,4,4,0,6,3,0,5,0,0,0,1,0,146,146,146,left,1,2.1638357000001633,None,,,,pil_001,001,0.5,1.0,2023-03-22_11h50.44.873,stress,2023.1.0,60.019974647632395,
4,2,5,3,1,0,4,0,0,6,5,5,0,0,0,1,0,147,147,147,left,1,1.0656812000001992,None,,,,pil_001,001,0.5,1.0,2023-03-22_11h50.44.873,stress,2023.1.0,60.019974647632395,
4,1,2,3,5,0,4,0,6,6,5,3,0,0,0,1,0,148,148,148,left,1,0.9250525000002199,None,,,,pil_001,001,0.5,1.0,2023-03-22_11h50.44.873,stress,2023.1.0,60.019974647632395,
5,2,0,1,3,4,4,5,3,0,6,0,0,1,1,1,0,149,149,149,up,1,1.1938414000001103,space,3.031634700000268,,,pil_001,001,0.5,1.0,2023-03-22_11h50.44.873,stress,2023.1.0,60.019974647632395,
5,1,0,4,3,2,4,0,6,3,6,5,1,1,0,1,0,150,150,150,left,1,1.8564354000000094,None,,,,pil_001,001,0.5,1.0,2023-03-22_11h50.44.873,stress,2023.1.0,60.019974647632395,
3,0,1,2,4,5,4,6,5,5,3,0,0,0,1,1,0,151,151,151,up,1,0.8635603000002448,None,,,,pil_001,001,0.5,1.0,2023-03-22_11h50.44.873,stress,2023.1.0,60.019974647632395,
1,2,3,5,0,4,4,6,3,0,3,5,0,0,0,1,0,152,152,152,left,1,1.5372918999996728,None,,,,pil_001,001,0.5,1.0,2023-03-22_11h50.44.873,stress,2023.1.0,60.019974647632395,
3,2,1,4,0,5,4,3,5,3,5,0,0,0,0,1,0,153,153,153,left,1,0.8721299000003455,None,,,,pil_001,001,0.5,1.0,2023-03-22_11h50.44.873,stress,2023.1.0,60.019974647632395,
0,5,4,3,2,1,4,0,6,6,3,5,1,0,0,1,0,154,154,154,left,1,1.315210599999773,None,,,,pil_001,001,0.5,1.0,2023-03-22_11h50.44.873,stress,2023.1.0,60.019974647632395,
1,5,3,2,4,0,4,3,3,5,0,0,1,0,0,1,0,155,155,155,left,1,1.0495249000000513,None,,,,pil_001,001,0.5,1.0,2023-03-22_11h50.44.873,stress,2023.1.0,60.019974647632395,
5,0,1,2,3,4,4,5,6,0,3,0,0,0,0,1,0,156,156,156,left,1,0.9572051000000101,None,,,,pil_001,001,0.5,1.0,2023-03-22_11h50.44.873,stress,2023.1.0,60.019974647632395,
3,2,0,4,1,5,4,6,0,3,5,6,1,1,1,1,0,157,157,157,up,1,2.0556682000001274,None,,,,pil_001,001,0.5,1.0,2023-03-22_11h50.44.873,stress,2023.1.0,60.019974647632395,
3,1,0,5,4,2,4,5,3,6,6,5,0,1,1,1,0,158,158,158,up,1,0.6612717000002704,None,,,,pil_001,001,0.5,1.0,2023-03-22_11h50.44.873,stress,2023.1.0,60.019974647632395,
0,1,3,5,4,2,4,0,5,5,6,6,1,1,0,1,0,159,159,159,left,1,1.2032493000001523,None,,,,pil_001,001,0.5,1.0,2023-03-22_11h50.44.873,stress,2023.1.0,60.019974647632395,
1,5,0,3,4,2,4,6,3,0,6,5,1,1,0,1,0,160,160,160,left,1,1.591750300000058,None,,,,pil_001,001,0.5,1.0,2023-03-22_11h50.44.873,stress,2023.1.0,60.019974647632395,
2,0,4,3,5,1,4,3,3,6,0,0,0,0,0,1,0,161,161,161,left,1,1.1693492999997943,None,,,,pil_001,001,0.5,1.0,2023-03-22_11h50.44.873,stress,2023.1.0,60.019974647632395,
3,0,2,5,4,1,4,0,3,3,0,6,0,1,0,1,0,162,162,162,left,1,0.5987778000003345,None,,,,pil_001,001,0.5,1.0,2023-03-22_11h50.44.873,stress,2023.1.0,60.019974647632395,
4,1,0,3,2,5,4,3,5,3,0,6,0,1,0,1,0,163,163,163,left,1,0.9563630000002377,None,,,,pil_001,001,0.5,1.0,2023-03-22_11h50.44.873,stress,2023.1.0,60.019974647632395,
1,2,5,4,0,3,4,3,6,0,3,5,0,1,1,1,0,164,164,164,up,1,1.12280439999995,None,,,,pil_001,001,0.5,1.0,2023-03-22_11h50.44.873,stress,2023.1.0,60.019974647632395,
2,0,5,1,4,3,4,3,6,5,0,0,1,0,1,1,0,165,165,165,left,0,0.7033728000001247,None,,,,pil_001,001,0.5,1.0,2023-03-22_11h50.44.873,stress,2023.1.0,60.019974647632395,
5,0,1,3,2,4,4,6,5,0,6,0,0,0,1,1,0,166,166,166,up,1,0.6045713000003161,None,,,,pil_001,001,0.5,1.0,2023-03-22_11h50.44.873,stress,2023.1.0,60.019974647632395,
0,5,2,3,1,4,4,0,6,6,3,0,0,0,1,1,0,167,167,167,up,1,0.7804716999999073,None,,,,pil_001,001,0.5,1.0,2023-03-22_11h50.44.873,stress,2023.1.0,60.019974647632395,
2,0,1,5,4,3,4,3,3,6,0,5,0,0,1,1,0,168,168,168,up,1,0.9521377000000939,None,,,,pil_001,001,0.5,1.0,2023-03-22_11h50.44.873,stress,2023.1.0,60.019974647632395,
3,2,4,1,0,5,4,0,5,6,6,5,0,1,0,1,0,169,169,169,left,1,0.7275101000000177,None,,,,pil_001,001,0.5,1.0,2023-03-22_11h50.44.873,stress,2023.1.0,60.019974647632395,
0,2,3,4,1,5,4,0,6,6,0,3,1,0,0,1,0,170,170,170,left,1,1.0641971000000012,None,,,,pil_001,001,0.5,1.0,2023-03-22_11h50.44.873,stress,2023.1.0,60.019974647632395,
0,1,5,4,2,3,4,0,6,3,6,5,0,0,1,1,0,171,171,171,up,1,0.7666451000000052,None,,,,pil_001,001,0.5,1.0,2023-03-22_11h50.44.873,stress,2023.1.0,60.019974647632395,
5,2,3,4,0,1,4,6,5,0,5,0,1,1,0,1,0,172,172,172,left,1,0.8702066999999261,None,,,,pil_001,001,0.5,1.0,2023-03-22_11h50.44.873,stress,2023.1.0,60.019974647632395,
1,5,0,2,4,3,4,0,5,5,3,3,1,1,1,1,0,173,173,173,up,1,1.3924857000001793,None,,,,pil_001,001,0.5,1.0,2023-03-22_11h50.44.873,stress,2023.1.0,60.019974647632395,
0,3,2,1,5,4,4,6,5,6,0,5,1,1,1,1,0,174,174,174,up,1,0.7046654999999191,None,,,,pil_001,001,0.5,1.0,2023-03-22_11h50.44.873,stress,2023.1.0,60.019974647632395,
2,1,4,0,5,3,4,0,5,6,0,3,0,1,1,1,0,175,175,175,up,1,0.6598612999996476,None,,,,pil_001,001,0.5,1.0,2023-03-22_11h50.44.873,stress,2023.1.0,60.019974647632395,
0,4,5,1,3,2,4,5,0,6,0,3,1,1,1,1,0,176,176,176,up,1,0.5498026000000209,None,,,,pil_001,001,0.5,1.0,2023-03-22_11h50.44.873,stress,2023.1.0,60.019974647632395,
1,0,5,3,4,2,4,0,6,5,5,3,0,1,1,1,0,177,177,177,up,1,0.661109099999976,None,,,,pil_001,001,0.5,1.0,2023-03-22_11h50.44.873,stress,2023.1.0,60.019974647632395,
5,2,3,0,4,1,4,5,0,5,0,3,1,1,0,1,0,178,178,178,up,0,1.2899642000002132,None,,,,pil_001,001,0.5,1.0,2023-03-22_11h50.44.873,stress,2023.1.0,60.019974647632395,
5,0,2,4,1,3,4,5,5,3,0,6,0,1,0,1,0,179,179,179,left,1,0.9358801999997013,space,2.2297342000001663,,,pil_001,001,0.5,1.0,2023-03-22_11h50.44.873,stress,2023.1.0,60.019974647632395,
5,3,4,1,2,0,4,6,0,5,0,5,1,1,1,1,0,180,180,180,up,1,0.575778899999932,None,,,,pil_001,001,0.5,1.0,2023-03-22_11h50.44.873,stress,2023.1.0,60.019974647632395,
4,0,1,5,2,3,4,0,6,0,5,3,1,1,0,1,0,181,181,181,left,1,0.9496008999999503,None,,,,pil_001,001,0.5,1.0,2023-03-22_11h50.44.873,stress,2023.1.0,60.019974647632395,
2,3,1,5,4,0,4,0,6,6,5,3,0,0,0,1,0,182,182,182,left,1,1.9112723999996888,None,,,,pil_001,001,0.5,1.0,2023-03-22_11h50.44.873,stress,2023.1.0,60.019974647632395,
5,4,3,1,2,0,4,5,0,3,5,0,1,1,1,1,0,183,183,183,up,1,0.6304211000001487,None,,,,pil_001,001,0.5,1.0,2023-03-22_11h50.44.873,stress,2023.1.0,60.019974647632395,
1,0,3,2,5,4,4,6,0,3,6,3,1,0,0,1,0,184,184,184,left,1,1.1634625000001506,None,,,,pil_001,001,0.5,1.0,2023-03-22_11h50.44.873,stress,2023.1.0,60.019974647632395,
4,5,3,2,0,1,4,5,3,5,6,3,1,0,1,1,0,185,185,185,up,1,0.889579600000161,None,,,,pil_001,001,0.5,1.0,2023-03-22_11h50.44.873,stress,2023.1.0,60.019974647632395,
5,4,2,0,3,1,4,6,0,6,5,3,0,1,1,1,0,186,186,186,up,1,0.584013799999866,None,,,,pil_001,001,0.5,1.0,2023-03-22_11h50.44.873,stress,2023.1.0,60.019974647632395,
3,4,2,0,1,5,4,5,0,6,0,6,0,0,1,1,0,187,187,187,up,1,0.5985627000000022,None,,,,pil_001,001,0.5,1.0,2023-03-22_11h50.44.873,stress,2023.1.0,60.019974647632395,
4,3,0,1,2,5,4,5,6,3,3,6,0,0,0,1,0,188,188,188,left,1,0.7697103999998944,None,,,,pil_001,001,0.5,1.0,2023-03-22_11h50.44.873,stress,2023.1.0,60.019974647632395,
4,1,5,3,2,0,4,3,0,5,0,6,0,1,1,1,0,189,189,189,up,1,0.6166137000000163,None,,,,pil_001,001,0.5,1.0,2023-03-22_11h50.44.873,stress,2023.1.0,60.019974647632395,
3,4,0,1,2,5,4,5,3,0,5,6,1,0,0,1,0,190,190,190,left,1,0.7000516999996762,None,,,,pil_001,001,0.5,1.0,2023-03-22_11h50.44.873,stress,2023.1.0,60.019974647632395,
3,4,1,0,5,2,4,3,5,5,0,0,1,1,1,1,0,191,191,191,up,1,0.8867095999999037,None,,,,pil_001,001,0.5,1.0,2023-03-22_11h50.44.873,stress,2023.1.0,60.019974647632395,
4,0,1,2,5,3,4,6,3,3,0,5,1,0,0,1,0,192,192,192,left,1,0.7068202000000383,None,,,,pil_001,001,0.5,1.0,2023-03-22_11h50.44.873,stress,2023.1.0,60.019974647632395,
2,4,5,3,1,0,4,6,3,0,6,5,1,0,0,1,0,193,193,193,left,1,0.9494453000002068,None,,,,pil_001,001,0.5,1.0,2023-03-22_11h50.44.873,stress,2023.1.0,60.019974647632395,
1,3,0,2,5,4,4,5,6,5,3,0,0,1,0,1,0,194,194,194,left,1,1.224560399999973,None,,,,pil_001,001,0.5,1.0,2023-03-22_11h50.44.873,stress,2023.1.0,60.019974647632395,
0,1,3,4,5,2,4,3,3,6,6,5,0,0,1,1,0,195,195,195,up,1,1.574024399999871,None,,,,pil_001,001,0.5,1.0,2023-03-22_11h50.44.873,stress,2023.1.0,60.019974647632395,
3,2,4,5,1,0,4,6,5,0,5,6,1,1,1,1,0,196,196,196,up,1,0.7144263999998657,None,,,,pil_001,001,0.5,1.0,2023-03-22_11h50.44.873,stress,2023.1.0,60.019974647632395,
1,3,4,2,5,0,4,0,3,3,6,6,1,0,1,1,0,197,197,197,up,1,1.1617003999999724,None,,,,pil_001,001,0.5,1.0,2023-03-22_11h50.44.873,stress,2023.1.0,60.019974647632395,
2,4,3,0,1,5,4,0,0,6,3,3,0,1,1,1,0,198,198,198,up,1,0.6175875000003543,None,,,,pil_001,001,0.5,1.0,2023-03-22_11h50.44.873,stress,2023.1.0,60.019974647632395,
4,3,2,0,5,1,4,3,3,5,6,0,1,0,1,1,0,199,199,199,up,1,0.7587713000002623,None,,,,pil_001,001,0.5,1.0,2023-03-22_11h50.44.873,stress,2023.1.0,60.019974647632395,
3,1,2,0,5,4,4,0,3,6,5,6,0,1,1,1,0,200,200,200,up,1,0.9135848999999325,None,,,,pil_001,001,0.5,1.0,2023-03-22_11h50.44.873,stress,2023.1.0,60.019974647632395,
3,0,5,4,1,2,4,3,3,6,0,5,1,1,1,1,0,201,201,201,up,1,0.6049795999997514,None,,,,pil_001,001,0.5,1.0,2023-03-22_11h50.44.873,stress,2023.1.0,60.019974647632395,
4,0,2,1,3,5,4,5,6,3,0,5,0,0,0,1,0,202,202,202,left,1,0.7923218000000816,None,,,,pil_001,001,0.5,1.0,2023-03-22_11h50.44.873,stress,2023.1.0,60.019974647632395,
5,0,3,1,2,4,4,6,6,0,0,3,1,1,1,1,0,203,203,203,up,1,0.9528182999997625,None,,,,pil_001,001,0.5,1.0,2023-03-22_11h50.44.873,stress,2023.1.0,60.019974647632395,
4,2,3,1,5,0,4,5,5,0,3,6,1,1,0,1,0,204,204,204,left,1,1.2147256000002926,None,,,,pil_001,001,0.5,1.0,2023-03-22_11h50.44.873,stress,2023.1.0,60.019974647632395,
5,4,0,2,3,1,4,5,3,5,0,6,0,1,0,1,0,205,205,205,left,1,1.406294699999762,None,,,,pil_001,001,0.5,1.0,2023-03-22_11h50.44.873,stress,2023.1.0,60.019974647632395,
0,5,4,1,3,2,4,5,6,6,0,3,1,1,1,1,0,206,206,206,up,1,0.6635317000000214,None,,,,pil_001,001,0.5,1.0,2023-03-22_11h50.44.873,stress,2023.1.0,60.019974647632395,
1,5,4,3,0,2,4,6,6,0,5,3,0,1,0,1,0,207,207,207,left,1,1.1341328999997131,None,,,,pil_001,001,0.5,1.0,2023-03-22_11h50.44.873,stress,2023.1.0,60.019974647632395,
2,1,5,0,3,4,4,6,5,0,3,6,0,0,0,1,0,208,208,208,left,1,1.1260161999998672,None,,,,pil_001,001,0.5,1.0,2023-03-22_11h50.44.873,stress,2023.1.0,60.019974647632395,
5,4,1,0,2,3,4,5,5,0,6,6,1,0,1,1,0,209,209,209,up,1,1.453936800000065,space,6.430881899999804,,,pil_001,001,0.5,1.0,2023-03-22_11h50.44.873,stress,2023.1.0,60.019974647632395,
4,0,1,2,3,5,4,3,3,5,5,0,1,1,1,1,0,210,210,210,up,1,1.0496730999998363,None,,,,pil_001,001,0.5,1.0,2023-03-22_11h50.44.873,stress,2023.1.0,60.019974647632395,
1,5,2,4,3,0,4,0,5,3,5,6,1,0,0,1,0,211,211,211,left,1,1.5020116999999118,None,,,,pil_001,001,0.5,1.0,2023-03-22_11h50.44.873,stress,2023.1.0,60.019974647632395,
2,3,0,5,1,4,4,3,6,6,0,5,1,1,0,1,0,212,212,212,left,1,1.282107200000155,None,,,,pil_001,001,0.5,1.0,2023-03-22_11h50.44.873,stress,2023.1.0,60.019974647632395,
1,0,5,3,2,4,4,3,5,0,0,5,1,1,0,1,0,213,213,213,left,1,1.0911955999999918,None,,,,pil_001,001,0.5,1.0,2023-03-22_11h50.44.873,stress,2023.1.0,60.019974647632395,
3,0,2,5,4,1,4,6,5,0,3,0,1,0,0,1,0,214,214,214,left,1,0.7589489000001777,None,,,,pil_001,001,0.5,1.0,2023-03-22_11h50.44.873,stress,2023.1.0,60.019974647632395,
2,3,1,0,4,5,4,6,3,0,6,0,0,1,0,1,0,215,215,215,left,1,1.088050800000019,None,,,,pil_001,001,0.5,1.0,2023-03-22_11h50.44.873,stress,2023.1.0,60.019974647632395,
2,1,3,5,4,0,4,3,0,6,0,5,1,0,0,1,0,216,216,216,left,1,0.5499297000001206,None,,,,pil_001,001,0.5,1.0,2023-03-22_11h50.44.873,stress,2023.1.0,60.019974647632395,
1,3,0,5,4,2,4,0,0,6,6,3,1,1,1,1,0,217,217,217,up,1,1.367543900000328,None,,,,pil_001,001,0.5,1.0,2023-03-22_11h50.44.873,stress,2023.1.0,60.019974647632395,
3,0,2,1,5,4,4,3,0,5,6,6,0,1,1,1,0,218,218,218,up,1,0.6419009000001097,None,,,,pil_001,001,0.5,1.0,2023-03-22_11h50.44.873,stress,2023.1.0,60.019974647632395,
4,0,2,1,5,3,4,5,0,3,3,0,0,1,1,1,0,219,219,219,up,1,0.6616453999999976,None,,,,pil_001,001,0.5,1.0,2023-03-22_11h50.44.873,stress,2023.1.0,60.019974647632395,
4,5,0,3,2,1,4,0,0,5,6,3,1,0,1,1,0,220,220,220,up,1,0.7205662000001212,None,,,,pil_001,001,0.5,1.0,2023-03-22_11h50.44.873,stress,2023.1.0,60.019974647632395,
3,4,5,1,0,2,4,3,5,0,5,0,1,1,0,1,0,221,221,221,left,1,0.6945120999998835,None,,,,pil_001,001,0.5,1.0,2023-03-22_11h50.44.873,stress,2023.1.0,60.019974647632395,
3,0,4,1,2,5,4,3,3,0,0,5,0,1,1,1,0,222,222,222,up,1,0.9146950999997898,None,,,,pil_001,001,0.5,1.0,2023-03-22_11h50.44.873,stress,2023.1.0,60.019974647632395,
2,4,5,0,1,3,4,6,5,3,0,6,1,0,1,1,0,223,223,223,up,1,0.671364999999696,None,,,,pil_001,001,0.5,1.0,2023-03-22_11h50.44.873,stress,2023.1.0,60.019974647632395,
1,0,4,3,5,2,4,5,3,3,6,0,1,1,1,1,0,224,224,224,up,1,0.7788473999999042,None,,,,pil_001,001,0.5,1.0,2023-03-22_11h50.44.873,stress,2023.1.0,60.019974647632395,
0,5,1,4,3,2,4,0,5,5,0,3,0,1,1,1,0,225,225,225,up,1,0.660855999999967,None,,,,pil_001,001,0.5,1.0,2023-03-22_11h50.44.873,stress,2023.1.0,60.019974647632395,
4,3,2,0,1,5,4,6,5,5,0,3,1,1,0,1,0,226,226,226,left,1,1.0250827999998364,None,,,,pil_001,001,0.5,1.0,2023-03-22_11h50.44.873,stress,2023.1.0,60.019974647632395,
3,0,5,4,2,1,4,5,6,3,0,5,0,1,0,1,0,227,227,227,left,1,0.7717076000003544,None,,,,pil_001,001,0.5,1.0,2023-03-22_11h50.44.873,stress,2023.1.0,60.019974647632395,
0,4,1,5,2,3,4,6,5,0,5,0,0,0,0,1,0,228,228,228,left,1,2.223314599999867,None,,,,pil_001,001,0.5,1.0,2023-03-22_11h50.44.873,stress,2023.1.0,60.019974647632395,
0,1,5,3,2,4,4,3,3,0,0,6,0,1,0,1,0,229,229,229,left,1,1.304816800000026,None,,,,pil_001,001,0.5,1.0,2023-03-22_11h50.44.873,stress,2023.1.0,60.019974647632395,
0,4,3,5,1,2,4,5,6,3,3,0,1,1,1,1,0,230,230,230,up,1,2.1897742000001017,None,,,,pil_001,001,0.5,1.0,2023-03-22_11h50.44.873,stress,2023.1.0,60.019974647632395,
2,1,4,0,5,3,4,0,3,5,5,3,1,1,0,1,0,231,231,231,left,1,1.1822497999996813,None,,,,pil_001,001,0.5,1.0,2023-03-22_11h50.44.873,stress,2023.1.0,60.019974647632395,
3,1,4,2,0,5,4,6,5,0,6,3,1,0,1,1,0,232,232,232,up,1,0.716379699999834,None,,,,pil_001,001,0.5,1.0,2023-03-22_11h50.44.873,stress,2023.1.0,60.019974647632395,
3,1,0,5,2,4,4,0,5,6,0,3,0,0,0,1,0,233,233,233,left,1,0.6806334999996579,None,,,,pil_001,001,0.5,1.0,2023-03-22_11h50.44.873,stress,2023.1.0,60.019974647632395,
3,2,5,1,4,0,4,3,0,5,0,6,0,1,0,1,0,234,234,234,left,1,0.5043396999999459,None,,,,pil_001,001,0.5,1.0,2023-03-22_11h50.44.873,stress,2023.1.0,60.019974647632395,
2,5,4,1,3,0,4,5,0,0,5,3,1,1,1,1,0,235,235,235,up,1,0.7972032999996372,None,,,,pil_001,001,0.5,1.0,2023-03-22_11h50.44.873,stress,2023.1.0,60.019974647632395,
1,0,5,3,4,2,4,6,0,3,6,5,0,0,0,1,0,236,236,236,left,1,2.1432574000000386,None,,,,pil_001,001,0.5,1.0,2023-03-22_11h50.44.873,stress,2023.1.0,60.019974647632395,
3,2,0,1,4,5,4,0,6,6,0,5,0,1,0,1,0,237,237,237,left,1,0.6374448999999913,None,,,,pil_001,001,0.5,1.0,2023-03-22_11h50.44.873,stress,2023.1.0,60.019974647632395,
1,2,3,4,5,0,4,6,5,0,5,6,0,1,1,1,0,238,238,238,up,1,0.7041734999997971,None,,,,pil_001,001,0.5,1.0,2023-03-22_11h50.44.873,stress,2023.1.0,60.019974647632395,
0,5,3,1,2,4,4,0,5,0,6,3,0,1,1,1,0,239,239,239,up,1,0.976450499999828,space,9.288783600000443,,,pil_001,001,0.5,1.0,2023-03-22_11h50.44.873,stress,2023.1.0,60.019974647632395,
5,3,0,1,4,2,4,3,0,6,5,3,0,1,0,1,0,240,240,240,left,1,2.5727037999999993,None,,,,pil_001,001,0.5,1.0,2023-03-22_11h50.44.873,stress,2023.1.0,60.019974647632395,
5,3,0,1,2,4,4,0,3,6,6,5,0,1,1,1,0,241,241,241,up,1,3.0364417999999205,None,,,,pil_001,001,0.5,1.0,2023-03-22_11h50.44.873,stress,2023.1.0,60.019974647632395,
0,3,5,2,1,4,4,3,0,3,6,5,1,0,1,1,0,242,242,242,up,1,1.4443495999998959,None,,,,pil_001,001,0.5,1.0,2023-03-22_11h50.44.873,stress,2023.1.0,60.019974647632395,
3,5,0,4,1,2,4,6,5,0,6,3,1,1,0,1,0,243,243,243,left,1,1.0664919999999256,None,,,,pil_001,001,0.5,1.0,2023-03-22_11h50.44.873,stress,2023.1.0,60.019974647632395,
4,3,2,1,5,0,4,0,6,3,5,6,1,1,1,1,0,244,244,244,up,1,1.1374472000002243,None,,,,pil_001,001,0.5,1.0,2023-03-22_11h50.44.873,stress,2023.1.0,60.019974647632395,
2,1,0,4,3,5,4,5,6,6,5,0,1,0,0,1,0,245,245,245,left,1,0.9650764999996682,None,,,,pil_001,001,0.5,1.0,2023-03-22_11h50.44.873,stress,2023.1.0,60.019974647632395,
3,4,5,0,2,1,4,6,5,3,6,0,1,1,1,1,0,246,246,246,up,1,0.7896933000001809,None,,,,pil_001,001,0.5,1.0,2023-03-22_11h50.44.873,stress,2023.1.0,60.019974647632395,
0,1,4,5,3,2,4,5,3,3,0,0,1,1,0,1,0,247,247,247,left,1,0.7756420000000617,None,,,,pil_001,001,0.5,1.0,2023-03-22_11h50.44.873,stress,2023.1.0,60.019974647632395,
4,5,2,1,0,3,4,6,3,0,6,3,0,1,1,1,0,248,248,248,up,1,1.0366911999999502,None,,,,pil_001,001,0.5,1.0,2023-03-22_11h50.44.873,stress,2023.1.0,60.019974647632395,
2,3,0,5,4,1,4,5,3,3,0,6,0,0,0,1,0,249,249,249,left,1,0.792134900000292,None,,,,pil_001,001,0.5,1.0,2023-03-22_11h50.44.873,stress,2023.1.0,60.019974647632395,
4,2,0,5,3,1,4,5,6,6,3,3,1,0,1,1,0,250,250,250,up,1,1.0150036,None,,,,pil_001,001,0.5,1.0,2023-03-22_11h50.44.873,stress,2023.1.0,60.019974647632395,
1,2,4,3,0,5,4,0,6,6,3,3,1,0,0,1,0,251,251,251,left,1,1.0554057999997895,None,,,,pil_001,001,0.5,1.0,2023-03-22_11h50.44.873,stress,2023.1.0,60.019974647632395,
5,3,1,4,0,2,4,0,6,3,6,5,1,0,1,1,0,252,252,252,up,1,1.343893499999922,None,,,,pil_001,001,0.5,1.0,2023-03-22_11h50.44.873,stress,2023.1.0,60.019974647632395,
5,4,2,3,1,0,4,5,0,3,3,6,1,1,1,1,0,253,253,253,up,1,0.6475427999998828,None,,,,pil_001,001,0.5,1.0,2023-03-22_11h50.44.873,stress,2023.1.0,60.019974647632395,
0,1,2,5,4,3,4,5,6,0,3,3,1,1,0,1,0,254,254,254,left,1,1.5985978000003342,None,,,,pil_001,001,0.5,1.0,2023-03-22_11h50.44.873,stress,2023.1.0,60.019974647632395,
1,3,0,2,4,5,4,5,0,6,5,3,0,1,1,1,0,255,255,255,up,1,0.9943908999998712,None,,,,pil_001,001,0.5,1.0,2023-03-22_11h50.44.873,stress,2023.1.0,60.019974647632395,
5,2,1,3,0,4,4,0,0,3,5,6,1,1,1,1,0,256,256,256,up,1,0.764386000000286,None,,,,pil_001,001,0.5,1.0,2023-03-22_11h50.44.873,stress,2023.1.0,60.019974647632395,
5,4,3,0,1,2,4,6,5,0,0,6,0,1,1,1,0,257,257,257,up,1,0.6614027999999053,None,,,,pil_001,001,0.5,1.0,2023-03-22_11h50.44.873,stress,2023.1.0,60.019974647632395,
1,4,2,3,5,0,4,0,6,3,5,6,0,0,1,1,0,258,258,258,up,1,1.3436241999997947,None,,,,pil_001,001,0.5,1.0,2023-03-22_11h50.44.873,stress,2023.1.0,60.019974647632395,
0,5,2,4,3,1,4,0,6,6,5,3,1,0,0,1,0,259,259,259,left,1,1.6211608999997225,None,,,,pil_001,001,0.5,1.0,2023-03-22_11h50.44.873,stress,2023.1.0,60.019974647632395,
0,5,2,4,3,1,4,3,0,0,5,6,1,0,0,1,0,260,260,260,left,1,0.7400117000001956,None,,,,pil_001,001,0.5,1.0,2023-03-22_11h50.44.873,stress,2023.1.0,60.019974647632395,
0,1,5,3,2,4,4,6,6,0,0,5,0,1,0,1,0,261,261,261,left,1,0.868359000000055,None,,,,pil_001,001,0.5,1.0,2023-03-22_11h50.44.873,stress,2023.1.0,60.019974647632395,
3,1,2,5,0,4,4,5,3,5,6,0,1,0,1,1,0,262,262,262,up,1,0.832952700000078,None,,,,pil_001,001,0.5,1.0,2023-03-22_11h50.44.873,stress,2023.1.0,60.019974647632395,
4,0,3,2,1,5,4,6,5,5,3,3,1,0,0,1,0,263,263,263,left,1,1.9976768999999877,None,,,,pil_001,001,0.5,1.0,2023-03-22_11h50.44.873,stress,2023.1.0,60.019974647632395,
5,1,2,3,4,0,4,6,3,3,0,5,0,1,1,1,0,264,264,264,up,1,0.6676471999999194,None,,,,pil_001,001,0.5,1.0,2023-03-22_11h50.44.873,stress,2023.1.0,60.019974647632395,
5,3,4,1,0,2,4,5,6,6,3,3,1,0,0,1,0,265,265,265,left,1,1.3514377000001332,None,,,,pil_001,001,0.5,1.0,2023-03-22_11h50.44.873,stress,2023.1.0,60.019974647632395,
5,4,2,0,3,1,4,5,0,6,6,5,0,1,1,1,0,266,266,266,up,1,0.5040892000001804,None,,,,pil_001,001,0.5,1.0,2023-03-22_11h50.44.873,stress,2023.1.0,60.019974647632395,
0,4,3,2,1,5,4,0,0,5,5,6,1,1,0,1,0,267,267,267,up,0,2.0483697999998185,None,,,,pil_001,001,0.5,1.0,2023-03-22_11h50.44.873,stress,2023.1.0,60.019974647632395,
4,3,0,5,1,2,4,6,6,0,3,5,1,1,1,1,0,268,268,268,up,1,1.3717265999998745,None,,,,pil_001,001,0.5,1.0,2023-03-22_11h50.44.873,stress,2023.1.0,60.019974647632395,
1,2,4,3,5,0,4,3,6,3,6,0,1,0,1,1,0,269,269,269,up,1,0.6539240000001882,space,1.8735560999998597,,,pil_001,001,0.5,1.0,2023-03-22_11h50.44.873,stress,2023.1.0,60.019974647632395,
5,1,4,3,2,0,4,3,0,6,6,0,1,1,1,1,0,270,270,270,up,1,1.0327041000000463,None,,,,pil_001,001,0.5,1.0,2023-03-22_11h50.44.873,stress,2023.1.0,60.019974647632395,
3,5,1,2,4,0,4,5,6,0,5,3,1,0,1,1,0,271,271,271,up,1,0.6045778999996401,None,,,,pil_001,001,0.5,1.0,2023-03-22_11h50.44.873,stress,2023.1.0,60.019974647632395,
5,1,3,2,0,4,4,6,3,0,5,5,0,1,0,1,0,272,272,272,left,1,1.0603916000000027,None,,,,pil_001,001,0.5,1.0,2023-03-22_11h50.44.873,stress,2023.1.0,60.019974647632395,
1,2,4,5,3,0,4,5,3,5,0,3,1,1,0,1,0,273,273,273,left,1,0.9664036000003762,None,,,,pil_001,001,0.5,1.0,2023-03-22_11h50.44.873,stress,2023.1.0,60.019974647632395,
4,2,3,1,5,0,4,3,6,3,6,5,1,1,0,1,0,274,274,274,left,1,0.6836646000001565,None,,,,pil_001,001,0.5,1.0,2023-03-22_11h50.44.873,stress,2023.1.0,60.019974647632395,
3,1,4,2,5,0,4,6,5,3,0,6,1,1,0,1,0,275,275,275,left,1,0.7446611999998822,None,,,,pil_001,001,0.5,1.0,2023-03-22_11h50.44.873,stress,2023.1.0,60.019974647632395,
4,0,1,5,2,3,4,0,0,3,5,5,1,0,0,1,0,276,276,276,left,1,1.5016272000002573,None,,,,pil_001,001,0.5,1.0,2023-03-22_11h50.44.873,stress,2023.1.0,60.019974647632395,
4,3,0,5,2,1,4,3,0,5,5,3,1,1,1,1,0,277,277,277,up,1,1.3181273999998666,None,,,,pil_001,001,0.5,1.0,2023-03-22_11h50.44.873,stress,2023.1.0,60.019974647632395,
2,4,1,5,3,0,4,6,5,0,0,3,0,1,1,1,0,278,278,278,up,1,0.8169319999997242,None,,,,pil_001,001,0.5,1.0,2023-03-22_11h50.44.873,stress,2023.1.0,60.019974647632395,
4,1,2,3,5,0,4,5,6,0,5,3,1,0,1,1,0,279,279,279,up,1,0.5908460999999079,None,,,,pil_001,001,0.5,1.0,2023-03-22_11h50.44.873,stress,2023.1.0,60.019974647632395,
2,5,4,1,0,3,4,6,3,3,5,6,1,0,0,1,0,280,280,280,left,1,0.9005457999996906,None,,,,pil_001,001,0.5,1.0,2023-03-22_11h50.44.873,stress,2023.1.0,60.019974647632395,
2,4,0,3,5,1,4,5,0,5,0,3,0,1,1,1,0,281,281,281,up,1,0.7689855999997235,None,,,,pil_001,001,0.5,1.0,2023-03-22_11h50.44.873,stress,2023.1.0,60.019974647632395,
4,2,5,3,1,0,4,6,5,3,6,0,0,1,0,1,0,282,282,282,left,1,1.0705987000001187,None,,,,pil_001,001,0.5,1.0,2023-03-22_11h50.44.873,stress,2023.1.0,60.019974647632395,
3,4,1,0,5,2,4,5,6,0,3,5,1,0,0,1,0,283,283,283,left,1,1.8102341000003435,None,,,,pil_001,001,0.5,1.0,2023-03-22_11h50.44.873,stress,2023.1.0,60.019974647632395,
5,1,2,3,4,0,4,5,0,0,3,6,0,0,1,1,0,284,284,284,up,1,0.8357715000001917,None,,,,pil_001,001,0.5,1.0,2023-03-22_11h50.44.873,stress,2023.1.0,60.019974647632395,
5,4,2,0,3,1,4,0,5,3,6,3,0,0,1,1,0,285,285,285,up,1,0.6758944000002884,None,,,,pil_001,001,0.5,1.0,2023-03-22_11h50.44.873,stress,2023.1.0,60.019974647632395,
0,5,2,3,1,4,4,0,5,6,3,5,1,1,0,1,0,286,286,286,left,1,1.309404899999663,None,,,,pil_001,001,0.5,1.0,2023-03-22_11h50.44.873,stress,2023.1.0,60.019974647632395,
1,3,5,0,2,4,4,5,0,6,5,3,1,1,1,1,0,287,287,287,up,1,0.801107399999637,None,,,,pil_001,001,0.5,1.0,2023-03-22_11h50.44.873,stress,2023.1.0,60.019974647632395,
2,4,1,5,3,0,4,3,0,5,3,6,0,1,0,1,0,288,288,288,left,1,0.9385388999999122,None,,,,pil_001,001,0.5,1.0,2023-03-22_11h50.44.873,stress,2023.1.0,60.019974647632395,
1,5,2,0,3,4,4,0,6,3,3,5,0,0,1,1,0,289,289,289,up,1,1.833722200000011,None,,,,pil_001,001,0.5,1.0,2023-03-22_11h50.44.873,stress,2023.1.0,60.019974647632395,
4,2,0,1,5,3,4,6,3,5,3,6,1,1,0,1,0,290,290,290,left,1,1.851995199999692,None,,,,pil_001,001,0.5,1.0,2023-03-22_11h50.44.873,stress,2023.1.0,60.019974647632395,
4,1,5,3,2,0,4,5,0,3,5,6,1,0,1,1,0,291,291,291,up,1,0.7632776000000376,None,,,,pil_001,001,0.5,1.0,2023-03-22_11h50.44.873,stress,2023.1.0,60.019974647632395,
2,5,0,3,1,4,4,0,0,5,6,6,0,0,1,1,0,292,292,292,up,1,0.7503636000001279,None,,,,pil_001,001,0.5,1.0,2023-03-22_11h50.44.873,stress,2023.1.0,60.019974647632395,
5,4,1,0,2,3,4,6,6,0,3,5,0,0,1,1,0,293,293,293,up,1,0.9148024999999507,None,,,,pil_001,001,0.5,1.0,2023-03-22_11h50.44.873,stress,2023.1.0,60.019974647632395,
2,3,5,0,4,1,4,0,5,3,0,6,0,0,1,1,0,294,294,294,up,1,0.5495276000001468,None,,,,pil_001,001,0.5,1.0,2023-03-22_11h50.44.873,stress,2023.1.0,60.019974647632395,
4,1,2,5,3,0,4,6,6,5,0,5,1,1,1,1,0,295,295,295,up,1,0.7908191999999872,None,,,,pil_001,001,0.5,1.0,2023-03-22_11h50.44.873,stress,2023.1.0,60.019974647632395,
2,1,4,5,3,0,4,5,0,5,6,3,1,0,1,1,0,296,296,296,up,1,0.5581566000000748,None,,,,pil_001,001,0.5,1.0,2023-03-22_11h50.44.873,stress,2023.1.0,60.019974647632395,
1,2,0,4,5,3,4,3,0,6,5,6,0,0,0,1,0,297,297,297,left,1,1.5821383000002243,None,,,,pil_001,001,0.5,1.0,2023-03-22_11h50.44.873,stress,2023.1.0,60.019974647632395,
5,2,4,1,0,3,4,5,3,6,6,5,1,1,1,1,0,298,298,298,up,1,0.9924995999999737,None,,,,pil_001,001,0.5,1.0,2023-03-22_11h50.44.873,stress,2023.1.0,60.019974647632395,
5,3,4,1,0,2,4,5,6,6,3,5,1,1,1,1,0,299,299,299,up,1,0.862249299999803,space,2.1576208000001316,,,pil_001,001,0.5,1.0,2023-03-22_11h50.44.873,stress,2023.1.0,60.019974647632395,
2,0,4,3,5,1,4,6,3,3,0,6,1,1,0,1,0,300,300,300,left,1,0.7642111000000114,None,,,,pil_001,001,0.5,1.0,2023-03-22_11h50.44.873,stress,2023.1.0,60.019974647632395,
2,1,4,5,3,0,4,6,3,3,0,6,0,1,1,1,0,301,301,301,up,1,0.6437127000003784,None,,,,pil_001,001,0.5,1.0,2023-03-22_11h50.44.873,stress,2023.1.0,60.019974647632395,
1,4,5,2,0,3,4,6,3,5,0,6,1,1,0,1,0,302,302,302,left,1,1.0771788000001834,None,,,,pil_001,001,0.5,1.0,2023-03-22_11h50.44.873,stress,2023.1.0,60.019974647632395,
1,4,2,0,5,3,4,0,5,3,3,5,0,0,0,1,0,303,303,303,left,1,1.1975499000000127,None,,,,pil_001,001,0.5,1.0,2023-03-22_11h50.44.873,stress,2023.1.0,60.019974647632395,
3,1,4,5,0,2,4,5,0,5,3,6,0,0,0,1,0,304,304,304,left,1,1.6866752000000815,None,,,,pil_001,001,0.5,1.0,2023-03-22_11h50.44.873,stress,2023.1.0,60.019974647632395,
5,1,3,0,2,4,4,6,6,3,5,3,1,1,0,1,0,305,305,305,up,0,2.280040999999983,None,,,,pil_001,001,0.5,1.0,2023-03-22_11h50.44.873,stress,2023.1.0,60.019974647632395,
1,0,4,5,2,3,4,5,6,3,3,6,1,1,0,1,0,306,306,306,left,1,2.581659700000273,None,,,,pil_001,001,0.5,1.0,2023-03-22_11h50.44.873,stress,2023.1.0,60.019974647632395,
0,5,3,1,4,2,4,6,5,0,0,6,1,0,1,1,0,307,307,307,up,1,2.397801300000083,None,,,,pil_001,001,0.5,1.0,2023-03-22_11h50.44.873,stress,2023.1.0,60.019974647632395,
3,2,0,1,4,5,4,3,6,5,5,0,0,0,0,1,0,308,308,308,left,1,0.7782575000001088,None,,,,pil_001,001,0.5,1.0,2023-03-22_11h50.44.873,stress,2023.1.0,60.019974647632395,
4,1,3,5,2,0,4,0,3,5,0,5,0,0,0,1,0,309,309,309,left,1,1.138203799999701,None,,,,pil_001,001,0.5,1.0,2023-03-22_11h50.44.873,stress,2023.1.0,60.019974647632395,
0,4,5,1,3,2,4,5,5,6,6,3,0,0,0,1,0,310,310,310,left,1,1.8506471999999121,None,,,,pil_001,001,0.5,1.0,2023-03-22_11h50.44.873,stress,2023.1.0,60.019974647632395,
2,4,5,3,1,0,4,3,6,6,3,5,1,1,0,1,0,311,311,311,left,1,0.6808903999999529,None,,,,pil_001,001,0.5,1.0,2023-03-22_11h50.44.873,stress,2023.1.0,60.019974647632395,
4,2,3,1,5,0,4,5,0,3,6,0,0,0,1,1,0,312,312,312,up,1,1.1322071999998116,None,,,,pil_001,001,0.5,1.0,2023-03-22_11h50.44.873,stress,2023.1.0,60.019974647632395,
1,2,5,3,4,0,4,3,3,5,5,6,0,1,1,1,0,313,313,313,up,1,0.999402999999802,None,,,,pil_001,001,0.5,1.0,2023-03-22_11h50.44.873,stress,2023.1.0,60.019974647632395,
2,0,1,5,4,3,4,0,3,0,3,6,0,0,0,1,0,314,314,314,left,1,1.0813548999999512,None,,,,pil_001,001,0.5,1.0,2023-03-22_11h50.44.873,stress,2023.1.0,60.019974647632395,
0,1,2,4,3,5,4,3,0,5,5,6,1,1,1,1,0,315,315,315,up,1,0.9779340999998567,None,,,,pil_001,001,0.5,1.0,2023-03-22_11h50.44.873,stress,2023.1.0,60.019974647632395,
4,2,5,0,1,3,4,6,3,0,0,6,1,0,1,1,0,316,316,316,up,1,1.1065749999997934,None,,,,pil_001,001,0.5,1.0,2023-03-22_11h50.44.873,stress,2023.1.0,60.019974647632395,
0,5,2,3,4,1,4,5,5,0,6,3,1,0,1,1,0,317,317,317,up,1,0.8060700999999426,None,,,,pil_001,001,0.5,1.0,2023-03-22_11h50.44.873,stress,2023.1.0,60.019974647632395,
5,1,3,4,0,2,4,5,3,6,5,6,1,0,0,1,0,318,318,318,left,1,1.3954850000000079,None,,,,pil_001,001,0.5,1.0,2023-03-22_11h50.44.873,stress,2023.1.0,60.019974647632395,
0,3,1,5,2,4,4,5,6,6,3,5,0,0,0,1,0,319,319,319,left,1,1.0492436999998063,None,,,,pil_001,001,0.5,1.0,2023-03-22_11h50.44.873,stress,2023.1.0,60.019974647632395,
2,3,0,1,5,4,4,5,0,3,3,6,0,0,1,1,0,320,320,320,up,1,0.9588416000001416,None,,,,pil_001,001,0.5,1.0,2023-03-22_11h50.44.873,stress,2023.1.0,60.019974647632395,
5,0,3,4,2,1,4,6,3,0,5,0,1,1,1,1,0,321,321,321,up,1,0.8337778000000071,None,,,,pil_001,001,0.5,1.0,2023-03-22_11h50.44.873,stress,2023.1.0,60.019974647632395,
4,0,5,3,2,1,4,0,5,3,6,5,0,0,1,1,0,322,322,322,up,1,0.649470900000324,None,,,,pil_001,001,0.5,1.0,2023-03-22_11h50.44.873,stress,2023.1.0,60.019974647632395,
1,5,3,4,2,0,4,6,3,3,0,5,1,0,1,1,0,323,323,323,up,1,0.967608299999938,None,,,,pil_001,001,0.5,1.0,2023-03-22_11h50.44.873,stress,2023.1.0,60.019974647632395,
0,2,1,3,4,5,4,6,5,6,3,0,1,0,0,1,0,324,324,324,left,1,1.3738773999998557,None,,,,pil_001,001,0.5,1.0,2023-03-22_11h50.44.873,stress,2023.1.0,60.019974647632395,
5,1,0,4,3,2,4,5,3,0,6,0,0,1,0,1,0,325,325,325,left,1,1.655092500000137,None,,,,pil_001,001,0.5,1.0,2023-03-22_11h50.44.873,stress,2023.1.0,60.019974647632395,
4,2,0,1,5,3,4,5,3,0,6,3,0,0,0,1,0,326,326,326,left,1,1.157183199999963,None,,,,pil_001,001,0.5,1.0,2023-03-22_11h50.44.873,stress,2023.1.0,60.019974647632395,
0,1,4,5,2,3,4,6,0,5,3,6,1,0,0,1,0,327,327,327,left,1,0.8175168999996458,None,,,,pil_001,001,0.5,1.0,2023-03-22_11h50.44.873,stress,2023.1.0,60.019974647632395,
3,1,0,4,2,5,4,5,6,5,6,0,1,1,1,1,0,328,328,328,up,1,1.7055097999996178,None,,,,pil_001,001,0.5,1.0,2023-03-22_11h50.44.873,stress,2023.1.0,60.019974647632395,
2,1,4,0,5,3,4,0,5,3,3,6,1,0,0,1,0,329,329,329,left,1,0.8946863000001031,space,571.9660832,,,pil_001,001,0.5,1.0,2023-03-22_11h50.44.873,stress,2023.1.0,60.019974647632395,
4,2,0,1,5,3,4,6,5,5,3,6,0,0,0,1,0,330,330,330,left,1,0.9100379999999859,None,,,,pil_001,001,0.5,1.0,2023-03-22_11h50.44.873,stress,2023.1.0,60.019974647632395,
0,1,4,5,3,2,4,6,3,6,5,0,0,0,0,1,0,331,331,331,left,1,1.5071735999999873,None,,,,pil_001,001,0.5,1.0,2023-03-22_11h50.44.873,stress,2023.1.0,60.019974647632395,
2,4,1,5,0,3,4,5,3,6,3,5,0,0,0,1,0,332,332,332,left,1,0.9616633000000547,None,,,,pil_001,001,0.5,1.0,2023-03-22_11h50.44.873,stress,2023.1.0,60.019974647632395,
4,3,5,1,0,2,4,6,3,0,6,3,1,0,1,1,0,333,333,333,up,1,0.7930998000001637,None,,,,pil_001,001,0.5,1.0,2023-03-22_11h50.44.873,stress,2023.1.0,60.019974647632395,
5,4,1,2,0,3,4,6,0,6,5,3,0,0,1,1,0,334,334,334,up,1,1.585178199999973,None,,,,pil_001,001,0.5,1.0,2023-03-22_11h50.44.873,stress,2023.1.0,60.019974647632395,
1,0,5,4,3,2,4,0,0,3,3,5,0,1,1,1,0,335,335,335,up,1,0.7787759000002552,None,,,,pil_001,001,0.5,1.0,2023-03-22_11h50.44.873,stress,2023.1.0,60.019974647632395,
5,0,3,2,1,4,4,6,3,5,0,0,0,1,0,1,0,336,336,336,up,0,0.9685242000005019,None,,,,pil_001,001,0.5,1.0,2023-03-22_11h50.44.873,stress,2023.1.0,60.019974647632395,
4,2,1,0,5,3,4,6,0,5,5,0,0,1,1,1,0,337,337,337,left,0,0.5337120999993203,None,,,,pil_001,001,0.5,1.0,2023-03-22_11h50.44.873,stress,2023.1.0,60.019974647632395,
1,3,4,0,5,2,4,5,3,6,5,0,1,1,0,1,0,338,338,338,left,1,1.4309932000005574,None,,,,pil_001,001,0.5,1.0,2023-03-22_11h50.44.873,stress,2023.1.0,60.019974647632395,
1,0,4,3,5,2,4,6,0,3,3,5,0,0,1,1,0,339,339,339,up,1,1.0683210999995936,None,,,,pil_001,001,0.5,1.0,2023-03-22_11h50.44.873,stress,2023.1.0,60.019974647632395,
4,2,0,5,3,1,4,6,5,0,6,0,0,0,0,1,0,340,340,340,left,1,0.7477487999994992,None,,,,pil_001,001,0.5,1.0,2023-03-22_11h50.44.873,stress,2023.1.0,60.019974647632395,
0,1,5,4,2,3,4,0,3,0,5,3,1,0,0,1,0,341,341,341,left,1,1.6692794999999023,None,,,,pil_001,001,0.5,1.0,2023-03-22_11h50.44.873,stress,2023.1.0,60.019974647632395,
5,3,4,0,1,2,4,0,6,0,5,3,0,1,0,1,0,342,342,342,up,0,1.0580765000004249,None,,,,pil_001,001,0.5,1.0,2023-03-22_11h50.44.873,stress,2023.1.0,60.019974647632395,
5,1,0,4,2,3,4,0,3,6,0,3,0,0,0,1,0,343,343,343,left,1,0.8439882000002399,None,,,,pil_001,001,0.5,1.0,2023-03-22_11h50.44.873,stress,2023.1.0,60.019974647632395,
3,4,1,0,2,5,4,5,6,3,6,3,1,0,0,1,0,344,344,344,left,1,0.7072237000002133,None,,,,pil_001,001,0.5,1.0,2023-03-22_11h50.44.873,stress,2023.1.0,60.019974647632395,
0,2,5,4,3,1,4,3,0,6,5,6,1,0,0,1,0,345,345,345,left,1,1.0488615000003847,None,,,,pil_001,001,0.5,1.0,2023-03-22_11h50.44.873,stress,2023.1.0,60.019974647632395,
1,3,0,2,4,5,4,5,3,6,3,6,0,1,1,1,0,346,346,346,up,1,0.9973190000000614,None,,,,pil_001,001,0.5,1.0,2023-03-22_11h50.44.873,stress,2023.1.0,60.019974647632395,
0,4,3,1,2,5,4,0,6,3,5,0,0,0,0,1,0,347,347,347,left,1,1.0523752999997669,None,,,,pil_001,001,0.5,1.0,2023-03-22_11h50.44.873,stress,2023.1.0,60.019974647632395,
5,4,3,1,0,2,4,3,0,6,5,5,1,1,1,1,0,348,348,348,up,1,0.5381704000001264,None,,,,pil_001,001,0.5,1.0,2023-03-22_11h50.44.873,stress,2023.1.0,60.019974647632395,
2,4,1,3,5,0,4,0,3,6,6,3,0,1,1,1,0,349,349,349,up,1,1.0810529999998835,None,,,,pil_001,001,0.5,1.0,2023-03-22_11h50.44.873,stress,2023.1.0,60.019974647632395,
1,3,4,5,2,0,4,3,0,6,3,0,0,0,1,1,0,350,350,350,up,1,0.9852250999992975,None,,,,pil_001,001,0.5,1.0,2023-03-22_11h50.44.873,stress,2023.1.0,60.019974647632395,
2,4,5,3,1,0,4,0,0,3,6,3,1,0,1,1,0,351,351,351,up,1,0.6521805000002132,None,,,,pil_001,001,0.5,1.0,2023-03-22_11h50.44.873,stress,2023.1.0,60.019974647632395,
2,4,5,1,3,0,4,6,5,0,0,3,1,0,0,1,0,352,352,352,left,1,0.5935770000005505,None,,,,pil_001,001,0.5,1.0,2023-03-22_11h50.44.873,stress,2023.1.0,60.019974647632395,
2,1,4,3,5,0,4,5,3,0,3,6,0,1,0,1,0,353,353,353,left,1,0.7175815999999031,None,,,,pil_001,001,0.5,1.0,2023-03-22_11h50.44.873,stress,2023.1.0,60.019974647632395,
3,5,0,1,2,4,4,0,3,6,5,3,1,0,0,1,0,354,354,354,left,1,0.5755847000000358,None,,,,pil_001,001,0.5,1.0,2023-03-22_11h50.44.873,stress,2023.1.0,60.019974647632395,
3,1,0,2,4,5,4,6,6,5,3,0,0,1,0,1,0,355,355,355,left,1,0.5868912999994791,None,,,,pil_001,001,0.5,1.0,2023-03-22_11h50.44.873,stress,2023.1.0,60.019974647632395,
2,1,4,3,5,0,4,0,5,0,3,3,1,0,1,1,0,356,356,356,up,1,0.66396850000001,None,,,,pil_001,001,0.5,1.0,2023-03-22_11h50.44.873,stress,2023.1.0,60.019974647632395,
1,3,5,4,0,2,4,0,5,3,3,5,0,1,0,1,0,357,357,357,left,1,1.6386060000004363,None,,,,pil_001,001,0.5,1.0,2023-03-22_11h50.44.873,stress,2023.1.0,60.019974647632395,
1,2,5,3,0,4,4,5,6,0,3,6,1,0,1,1,0,358,358,358,up,1,0.7744882999995752,None,,,,pil_001,001,0.5,1.0,2023-03-22_11h50.44.873,stress,2023.1.0,60.019974647632395,
1,4,2,3,0,5,4,3,6,5,0,3,0,0,0,1,0,359,359,359,left,1,1.1654915999997684,space,2.2643369000006714,,,pil_001,001,0.5,1.0,2023-03-22_11h50.44.873,stress,2023.1.0,60.019974647632395,
2,1,3,4,5,0,4,5,3,6,0,6,1,0,0,1,0,360,360,360,left,1,0.87581979999959,None,,,,pil_001,001,0.5,1.0,2023-03-22_11h50.44.873,stress,2023.1.0,60.019974647632395,
5,0,4,2,1,3,4,0,6,5,3,6,0,0,1,1,0,361,361,361,up,1,1.4637468000000808,None,,,,pil_001,001,0.5,1.0,2023-03-22_11h50.44.873,stress,2023.1.0,60.019974647632395,
4,5,3,2,1,0,4,0,5,0,3,5,1,1,0,1,0,362,362,362,left,1,1.4950479999997697,None,,,,pil_001,001,0.5,1.0,2023-03-22_11h50.44.873,stress,2023.1.0,60.019974647632395,
1,0,3,4,2,5,4,0,3,3,5,6,1,0,1,1,0,363,363,363,up,1,0.7301682999996046,None,,,,pil_001,001,0.5,1.0,2023-03-22_11h50.44.873,stress,2023.1.0,60.019974647632395,
1,3,0,5,4,2,4,5,5,0,3,6,0,1,0,1,0,364,364,364,left,1,1.6593441999993956,None,,,,pil_001,001,0.5,1.0,2023-03-22_11h50.44.873,stress,2023.1.0,60.019974647632395,
3,0,5,2,1,4,4,5,5,3,6,3,0,1,1,1,0,365,365,365,up,1,0.8702954999998838,None,,,,pil_001,001,0.5,1.0,2023-03-22_11h50.44.873,stress,2023.1.0,60.019974647632395,
1,3,2,4,0,5,4,0,3,3,6,5,1,0,0,1,0,366,366,366,left,1,1.0446234000000914,None,,,,pil_001,001,0.5,1.0,2023-03-22_11h50.44.873,stress,2023.1.0,60.019974647632395,
4,1,0,2,3,5,4,0,5,6,6,0,0,0,0,1,0,367,367,367,left,1,0.9255456999999296,None,,,,pil_001,001,0.5,1.0,2023-03-22_11h50.44.873,stress,2023.1.0,60.019974647632395,
0,3,1,5,4,2,4,5,6,3,3,5,0,0,0,1,0,368,368,368,left,1,1.3244269999995595,None,,,,pil_001,001,0.5,1.0,2023-03-22_11h50.44.873,stress,2023.1.0,60.019974647632395,
5,1,0,3,2,4,4,6,5,0,3,5,1,1,0,1,0,369,369,369,left,1,0.9796133999998347,None,,,,pil_001,001,0.5,1.0,2023-03-22_11h50.44.873,stress,2023.1.0,60.019974647632395,
3,5,4,2,1,0,4,6,3,6,5,0,0,0,0,1,0,370,370,370,left,1,0.6047637000001487,None,,,,pil_001,001,0.5,1.0,2023-03-22_11h50.44.873,stress,2023.1.0,60.019974647632395,
1,3,2,5,4,0,4,0,3,6,3,5,0,1,0,1,0,371,371,371,left,1,1.0611364999995203,None,,,,pil_001,001,0.5,1.0,2023-03-22_11h50.44.873,stress,2023.1.0,60.019974647632395,
3,1,5,4,2,0,4,3,0,5,5,0,0,0,0,1,0,372,372,372,left,1,0.656192600000395,None,,,,pil_001,001,0.5,1.0,2023-03-22_11h50.44.873,stress,2023.1.0,60.019974647632395,
2,3,1,5,0,4,4,3,3,0,5,0,1,1,1,1,0,373,373,373,left,0,0.7111474999992424,None,,,,pil_001,001,0.5,1.0,2023-03-22_11h50.44.873,stress,2023.1.0,60.019974647632395,
3,1,4,0,2,5,4,3,6,6,5,3,1,0,0,1,0,374,374,374,left,1,0.7454307999996672,None,,,,pil_001,001,0.5,1.0,2023-03-22_11h50.44.873,stress,2023.1.0,60.019974647632395,
3,0,1,5,2,4,4,5,6,6,5,0,1,1,0,1,0,375,375,375,left,1,0.501453699999729,None,,,,pil_001,001,0.5,1.0,2023-03-22_11h50.44.873,stress,2023.1.0,60.019974647632395,
0,2,5,4,3,1,4,3,6,5,3,0,0,1,0,1,0,376,376,376,left,1,1.4327559999992445,None,,,,pil_001,001,0.5,1.0,2023-03-22_11h50.44.873,stress,2023.1.0,60.019974647632395,
2,3,1,5,0,4,4,6,5,5,3,0,0,1,1,1,0,377,377,377,up,1,0.6130508000005648,None,,,,pil_001,001,0.5,1.0,2023-03-22_11h50.44.873,stress,2023.1.0,60.019974647632395,
5,0,4,2,3,1,4,0,6,5,0,3,1,1,0,1,0,378,378,378,left,1,1.1496602000006533,None,,,,pil_001,001,0.5,1.0,2023-03-22_11h50.44.873,stress,2023.1.0,60.019974647632395,
1,4,5,0,2,3,4,5,0,5,3,3,1,1,1,1,0,379,379,379,up,1,1.1178121000002648,None,,,,pil_001,001,0.5,1.0,2023-03-22_11h50.44.873,stress,2023.1.0,60.019974647632395,
5,4,1,2,0,3,4,0,0,6,3,3,1,0,0,1,0,380,380,380,left,1,1.3987905000003593,None,,,,pil_001,001,0.5,1.0,2023-03-22_11h50.44.873,stress,2023.1.0,60.019974647632395,
3,0,4,1,2,5,4,6,6,0,5,5,1,0,1,1,0,381,381,381,up,1,0.8170629000005647,None,,,,pil_001,001,0.5,1.0,2023-03-22_11h50.44.873,stress,2023.1.0,60.019974647632395,
4,5,3,1,2,0,4,5,6,0,3,6,1,1,0,1,0,382,382,382,left,1,0.7380130999999892,None,,,,pil_001,001,0.5,1.0,2023-03-22_11h50.44.873,stress,2023.1.0,60.019974647632395,
4,3,2,0,5,1,4,6,6,3,0,0,1,0,1,1,0,383,383,383,up,1,0.5689510000001974,None,,,,pil_001,001,0.5,1.0,2023-03-22_11h50.44.873,stress,2023.1.0,60.019974647632395,
0,4,3,2,1,5,4,3,3,5,6,0,0,1,0,1,0,384,384,384,left,1,1.23072669999965,None,,,,pil_001,001,0.5,1.0,2023-03-22_11h50.44.873,stress,2023.1.0,60.019974647632395,
1,5,0,4,3,2,4,0,5,3,0,5,1,0,0,1,0,385,385,385,left,1,0.8667577999995046,None,,,,pil_001,001,0.5,1.0,2023-03-22_11h50.44.873,stress,2023.1.0,60.019974647632395,
3,4,2,0,1,5,4,5,6,0,5,3,1,0,1,1,0,386,386,386,up,1,0.9097541000001002,None,,,,pil_001,001,0.5,1.0,2023-03-22_11h50.44.873,stress,2023.1.0,60.019974647632395,
0,1,4,5,2,3,4,3,0,5,5,3,1,0,0,1,0,387,387,387,left,1,1.226471599999968,None,,,,pil_001,001,0.5,1.0,2023-03-22_11h50.44.873,stress,2023.1.0,60.019974647632395,
3,5,4,2,0,1,4,6,3,0,3,0,0,1,1,1,0,388,388,388,up,1,1.9555381999998644,None,,,,pil_001,001,0.5,1.0,2023-03-22_11h50.44.873,stress,2023.1.0,60.019974647632395,
2,3,4,1,0,5,4,5,5,6,6,0,0,1,1,1,0,389,389,389,up,1,0.883477800000037,space,1.9011575000004086,,,pil_001,001,0.5,1.0,2023-03-22_11h50.44.873,stress,2023.1.0,60.019974647632395,
2,1,4,0,5,3,4,0,0,6,5,3,1,0,0,1,0,390,390,390,left,1,0.6865913000001456,None,,,,pil_001,001,0.5,1.0,2023-03-22_11h50.44.873,stress,2023.1.0,60.019974647632395,
4,3,5,0,1,2,4,5,5,3,6,0,0,1,1,1,0,391,391,391,up,1,0.7736546000005546,None,,,,pil_001,001,0.5,1.0,2023-03-22_11h50.44.873,stress,2023.1.0,60.019974647632395,
1,3,5,2,4,0,4,5,0,5,6,6,0,1,0,1,0,392,392,392,left,1,1.3868246000001818,None,,,,pil_001,001,0.5,1.0,2023-03-22_11h50.44.873,stress,2023.1.0,60.019974647632395,
4,1,2,0,5,3,4,5,5,6,3,0,0,0,0,1,0,393,393,393,left,1,1.2678567000002658,None,,,,pil_001,001,0.5,1.0,2023-03-22_11h50.44.873,stress,2023.1.0,60.019974647632395,
0,3,1,2,5,4,4,5,3,6,3,0,1,1,0,1,0,394,394,394,left,1,0.8181889999996201,None,,,,pil_001,001,0.5,1.0,2023-03-22_11h50.44.873,stress,2023.1.0,60.019974647632395,
1,5,2,0,3,4,4,0,5,5,3,3,0,0,1,1,0,395,395,395,up,1,1.9370222999996258,None,,,,pil_001,001,0.5,1.0,2023-03-22_11h50.44.873,stress,2023.1.0,60.019974647632395,
4,1,2,0,5,3,4,0,6,3,6,5,0,1,1,1,0,396,396,396,left,0,1.052802299999712,None,,,,pil_001,001,0.5,1.0,2023-03-22_11h50.44.873,stress,2023.1.0,60.019974647632395,
4,1,2,5,0,3,4,5,6,0,6,3,0,0,1,1,0,397,397,397,up,1,0.6473000999994838,None,,,,pil_001,001,0.5,1.0,2023-03-22_11h50.44.873,stress,2023.1.0,60.019974647632395,
4,5,0,1,2,3,4,5,0,3,5,3,1,0,0,1,0,398,398,398,left,1,0.9182360999993762,None,,,,pil_001,001,0.5,1.0,2023-03-22_11h50.44.873,stress,2023.1.0,60.019974647632395,
1,4,5,2,3,0,4,6,5,6,5,0,0,1,1,1,0,399,399,399,up,1,0.9591683000007833,None,,,,pil_001,001,0.5,1.0,2023-03-22_11h50.44.873,stress,2023.1.0,60.019974647632395,
1,3,5,4,0,2,4,5,3,6,0,6,0,0,0,1,0,400,400,400,left,1,1.377451999999721,None,,,,pil_001,001,0.5,1.0,2023-03-22_11h50.44.873,stress,2023.1.0,60.019974647632395,
4,1,2,3,0,5,4,0,5,5,3,6,1,0,1,1,0,401,401,401,up,1,0.6731085999999777,None,,,,pil_001,001,0.5,1.0,2023-03-22_11h50.44.873,stress,2023.1.0,60.019974647632395,
5,4,1,0,2,3,4,6,5,0,0,5,0,1,0,1,0,402,402,402,left,1,1.2557362999996258,None,,,,pil_001,001,0.5,1.0,2023-03-22_11h50.44.873,stress,2023.1.0,60.019974647632395,
5,0,4,1,2,3,4,3,0,5,0,5,1,0,1,1,0,403,403,403,up,1,0.6223558000001503,None,,,,pil_001,001,0.5,1.0,2023-03-22_11h50.44.873,stress,2023.1.0,60.019974647632395,
4,0,1,5,2,3,4,3,0,6,3,6,0,1,0,1,0,404,404,404,left,1,0.795102300000508,None,,,,pil_001,001,0.5,1.0,2023-03-22_11h50.44.873,stress,2023.1.0,60.019974647632395,
5,2,1,4,3,0,4,0,6,5,0,3,0,0,0,1,0,405,405,405,left,1,0.7491062999997666,None,,,,pil_001,001,0.5,1.0,2023-03-22_11h50.44.873,stress,2023.1.0,60.019974647632395,
5,2,3,0,4,1,4,0,6,3,5,5,0,0,0,1,0,406,406,406,left,1,0.8016997000004267,None,,,,pil_001,001,0.5,1.0,2023-03-22_11h50.44.873,stress,2023.1.0,60.019974647632395,
3,0,1,4,2,5,4,3,0,6,6,5,1,1,1,1,0,407,407,407,up,1,0.9050456000004488,None,,,,pil_001,001,0.5,1.0,2023-03-22_11h50.44.873,stress,2023.1.0,60.019974647632395,
2,1,0,4,3,5,4,6,3,0,6,5,0,1,0,1,0,408,408,408,left,1,0.7059489000002941,None,,,,pil_001,001,0.5,1.0,2023-03-22_11h50.44.873,stress,2023.1.0,60.019974647632395,
5,2,4,3,1,0,4,0,3,6,5,6,0,1,0,1,0,409,409,409,left,1,0.8280748999995922,None,,,,pil_001,001,0.5,1.0,2023-03-22_11h50.44.873,stress,2023.1.0,60.019974647632395,
4,3,5,2,0,1,4,5,3,0,0,5,0,0,1,1,0,410,410,410,left,0,0.8480822999999873,None,,,,pil_001,001,0.5,1.0,2023-03-22_11h50.44.873,stress,2023.1.0,60.019974647632395,
1,3,5,2,0,4,4,3,5,3,0,0,0,1,1,1,0,411,411,411,up,1,1.0034909000005428,None,,,,pil_001,001,0.5,1.0,2023-03-22_11h50.44.873,stress,2023.1.0,60.019974647632395,
0,4,5,1,3,2,4,5,5,3,3,0,0,1,0,1,0,412,412,412,left,1,0.9238713999993706,None,,,,pil_001,001,0.5,1.0,2023-03-22_11h50.44.873,stress,2023.1.0,60.019974647632395,
1,4,5,2,0,3,4,0,3,6,5,5,0,1,0,1,0,413,413,413,up,0,0.6292746999997689,None,,,,pil_001,001,0.5,1.0,2023-03-22_11h50.44.873,stress,2023.1.0,60.019974647632395,
4,0,1,5,2,3,4,0,3,5,6,5,0,1,0,1,0,414,414,414,left,1,0.7801569000002928,None,,,,pil_001,001,0.5,1.0,2023-03-22_11h50.44.873,stress,2023.1.0,60.019974647632395,
5,3,4,0,2,1,4,3,5,0,6,5,0,0,1,1,0,415,415,415,up,1,0.5629598000004989,None,,,,pil_001,001,0.5,1.0,2023-03-22_11h50.44.873,stress,2023.1.0,60.019974647632395,
4,2,5,1,0,3,4,5,0,0,3,3,0,1,1,1,0,416,416,416,up,1,0.5805399999999281,None,,,,pil_001,001,0.5,1.0,2023-03-22_11h50.44.873,stress,2023.1.0,60.019974647632395,
1,2,0,4,3,5,4,5,6,6,0,5,0,1,0,1,0,417,417,417,left,1,1.1040382000001046,None,,,,pil_001,001,0.5,1.0,2023-03-22_11h50.44.873,stress,2023.1.0,60.019974647632395,
1,0,2,5,4,3,4,0,3,6,3,5,1,1,0,1,0,418,418,418,left,1,1.5609233999994103,None,,,,pil_001,001,0.5,1.0,2023-03-22_11h50.44.873,stress,2023.1.0,60.019974647632395,
3,2,1,4,0,5,4,6,3,3,5,0,1,0,1,1,0,419,419,419,up,1,0.8042750999993586,space,1.8351712999992742,,,pil_001,001,0.5,1.0,2023-03-22_11h50.44.873,stress,2023.1.0,60.019974647632395,
1,0,3,2,5,4,4,5,0,3,6,0,0,1,1,1,0,420,420,420,up,1,0.9619874999998501,None,,,,pil_001,001,0.5,1.0,2023-03-22_11h50.44.873,stress,2023.1.0,60.019974647632395,
1,2,0,5,3,4,4,0,6,5,0,3,1,0,1,1,0,421,421,421,up,1,0.9521023000006608,None,,,,pil_001,001,0.5,1.0,2023-03-22_11h50.44.873,stress,2023.1.0,60.019974647632395,
3,5,0,4,2,1,4,0,6,3,5,3,0,1,1,1,0,422,422,422,up,1,0.608997499999532,None,,,,pil_001,001,0.5,1.0,2023-03-22_11h50.44.873,stress,2023.1.0,60.019974647632395,
4,5,2,3,0,1,4,6,0,3,6,3,0,1,0,1,0,423,423,423,left,1,1.0550669000003836,None,,,,pil_001,001,0.5,1.0,2023-03-22_11h50.44.873,stress,2023.1.0,60.019974647632395,
4,0,2,1,5,3,4,5,6,6,0,3,1,1,1,1,0,424,424,424,up,1,0.6855576999996629,None,,,,pil_001,001,0.5,1.0,2023-03-22_11h50.44.873,stress,2023.1.0,60.019974647632395,
1,4,5,0,3,2,4,3,6,0,0,6,0,0,1,1,0,425,425,425,up,1,1.0378538000004482,None,,,,pil_001,001,0.5,1.0,2023-03-22_11h50.44.873,stress,2023.1.0,60.019974647632395,
5,3,4,1,0,2,4,3,0,5,6,0,0,1,1,1,0,426,426,426,up,1,0.8329499999999825,None,,,,pil_001,001,0.5,1.0,2023-03-22_11h50.44.873,stress,2023.1.0,60.019974647632395,
0,2,1,3,5,4,4,6,5,5,0,6,0,1,0,1,0,427,427,427,left,1,1.5943465000000288,None,,,,pil_001,001,0.5,1.0,2023-03-22_11h50.44.873,stress,2023.1.0,60.019974647632395,
0,1,4,5,3,2,4,3,0,6,3,0,1,0,1,1,0,428,428,428,up,1,0.5308862000001682,None,,,,pil_001,001,0.5,1.0,2023-03-22_11h50.44.873,stress,2023.1.0,60.019974647632395,
3,2,5,0,4,1,4,6,3,3,5,6,1,0,0,1,0,429,429,429,left,1,0.9508385999997699,None,,,,pil_001,001,0.5,1.0,2023-03-22_11h50.44.873,stress,2023.1.0,60.019974647632395,
1,5,3,0,2,4,4,6,6,5,3,0,0,0,1,1,0,430,430,430,up,1,0.8817327000006117,None,,,,pil_001,001,0.5,1.0,2023-03-22_11h50.44.873,stress,2023.1.0,60.019974647632395,
3,5,4,2,0,1,4,6,5,3,0,5,1,1,0,1,0,431,431,431,left,1,0.6118490000008023,None,,,,pil_001,001,0.5,1.0,2023-03-22_11h50.44.873,stress,2023.1.0,60.019974647632395,
2,5,3,0,4,1,4,6,3,0,3,5,0,1,0,1,0,432,432,432,left,1,0.6131808999998611,None,,,,pil_001,001,0.5,1.0,2023-03-22_11h50.44.873,stress,2023.1.0,60.019974647632395,
4,1,0,3,2,5,4,0,5,3,3,5,0,0,1,1,0,433,433,433,up,1,1.0609933000005185,None,,,,pil_001,001,0.5,1.0,2023-03-22_11h50.44.873,stress,2023.1.0,60.019974647632395,
5,2,1,4,0,3,4,5,0,5,6,3,1,1,1,1,0,434,434,434,up,1,0.6240998000002946,None,,,,pil_001,001,0.5,1.0,2023-03-22_11h50.44.873,stress,2023.1.0,60.019974647632395,
1,4,2,5,3,0,4,5,6,0,5,0,1,0,1,1,0,435,435,435,up,1,0.981592100000853,None,,,,pil_001,001,0.5,1.0,2023-03-22_11h50.44.873,stress,2023.1.0,60.019974647632395,
3,2,4,0,1,5,4,0,5,0,3,6,0,0,1,1,0,436,436,436,up,1,0.565270099999907,None,,,,pil_001,001,0.5,1.0,2023-03-22_11h50.44.873,stress,2023.1.0,60.019974647632395,
2,4,0,1,5,3,4,3,6,0,5,0,1,0,0,1,0,437,437,437,left,1,0.7463445999992473,None,,,,pil_001,001,0.5,1.0,2023-03-22_11h50.44.873,stress,2023.1.0,60.019974647632395,
0,5,1,2,4,3,4,0,6,0,3,3,1,1,1,1,0,438,438,438,up,1,0.8903502000002845,None,,,,pil_001,001,0.5,1.0,2023-03-22_11h50.44.873,stress,2023.1.0,60.019974647632395,
1,0,5,3,4,2,4,0,3,3,6,0,1,0,1,1,0,439,439,439,up,1,1.005222899999353,None,,,,pil_001,001,0.5,1.0,2023-03-22_11h50.44.873,stress,2023.1.0,60.019974647632395,
5,0,1,3,2,4,4,6,5,0,6,0,0,1,0,1,0,440,440,440,left,1,0.8719542000008005,None,,,,pil_001,001,0.5,1.0,2023-03-22_11h50.44.873,stress,2023.1.0,60.019974647632395,
4,2,1,0,5,3,4,5,0,6,3,5,0,1,0,1,0,441,441,441,left,1,0.7753990000001068,None,,,,pil_001,001,0.5,1.0,2023-03-22_11h50.44.873,stress,2023.1.0,60.019974647632395,
0,5,4,1,2,3,4,5,6,5,6,0,1,0,0,1,0,442,442,442,left,1,1.151057299999593,None,,,,pil_001,001,0.5,1.0,2023-03-22_11h50.44.873,stress,2023.1.0,60.019974647632395,
4,1,3,2,5,0,4,3,5,0,6,0,0,0,0,1,0,443,443,443,left,1,0.8316307000004599,None,,,,pil_001,001,0.5,1.0,2023-03-22_11h50.44.873,stress,2023.1.0,60.019974647632395,
0,1,2,5,4,3,4,6,5,0,3,6,1,0,0,1,0,444,444,444,left,1,0.6300352999996903,None,,,,pil_001,001,0.5,1.0,2023-03-22_11h50.44.873,stress,2023.1.0,60.019974647632395,
4,1,3,2,5,0,4,0,5,3,5,6,0,1,1,1,0,445,445,445,up,1,0.9695893000007345,None,,,,pil_001,001,0.5,1.0,2023-03-22_11h50.44.873,stress,2023.1.0,60.019974647632395,
2,1,4,3,5,0,4,6,0,3,3,6,1,0,0,1,0,446,446,446,left,1,0.6337696000000506,None,,,,pil_001,001,0.5,1.0,2023-03-22_11h50.44.873,stress,2023.1.0,60.019974647632395,
5,1,3,0,2,4,4,0,0,5,6,6,1,1,1,1,0,447,447,447,up,1,0.7472243000001981,None,,,,pil_001,001,0.5,1.0,2023-03-22_11h50.44.873,stress,2023.1.0,60.019974647632395,
2,4,0,1,5,3,4,6,3,5,0,3,1,1,0,1,0,448,448,448,left,1,0.7062114000000292,None,,,,pil_001,001,0.5,1.0,2023-03-22_11h50.44.873,stress,2023.1.0,60.019974647632395,
2,5,0,3,4,1,4,0,0,3,6,5,1,0,0,1,0,449,449,449,up,0,0.6966381000002002,left,0.049402999999983876,,,pil_001,001,0.5,1.0,2023-03-22_11h50.44.873,stress,2023.1.0,60.019974647632395,
2,1,3,0,5,4,4,5,0,3,3,5,1,0,0,1,0,450,450,450,left,1,0.5749591999992845,None,,,,pil_001,001,0.5,1.0,2023-03-22_11h50.44.873,stress,2023.1.0,60.019974647632395,
3,4,2,5,0,1,4,3,6,0,6,3,1,0,1,1,0,451,451,451,up,1,1.226894600000378,None,,,,pil_001,001,0.5,1.0,2023-03-22_11h50.44.873,stress,2023.1.0,60.019974647632395,
3,4,1,5,2,0,4,5,0,6,3,6,1,1,1,1,0,452,452,452,up,1,1.2950652999998056,None,,,,pil_001,001,0.5,1.0,2023-03-22_11h50.44.873,stress,2023.1.0,60.019974647632395,
5,4,0,2,1,3,4,0,3,6,5,5,0,0,1,1,0,453,453,453,up,1,1.7932468000008157,None,,,,pil_001,001,0.5,1.0,2023-03-22_11h50.44.873,stress,2023.1.0,60.019974647632395,
3,1,5,0,4,2,4,6,3,0,3,5,0,0,0,1,0,454,454,454,left,1,0.5768685000002733,None,,,,pil_001,001,0.5,1.0,2023-03-22_11h50.44.873,stress,2023.1.0,60.019974647632395,
3,0,1,5,2,4,4,6,6,3,5,0,0,0,0,1,0,455,455,455,left,1,0.5505175999996936,None,,,,pil_001,001,0.5,1.0,2023-03-22_11h50.44.873,stress,2023.1.0,60.019974647632395,
5,1,3,0,4,2,4,0,3,5,0,6,1,1,1,1,0,456,456,456,up,1,0.955355199999758,None,,,,pil_001,001,0.5,1.0,2023-03-22_11h50.44.873,stress,2023.1.0,60.019974647632395,
4,5,3,0,2,1,4,5,0,3,0,6,1,1,1,1,0,457,457,457,up,1,0.609167399999933,None,,,,pil_001,001,0.5,1.0,2023-03-22_11h50.44.873,stress,2023.1.0,60.019974647632395,
5,1,2,4,0,3,4,0,6,5,3,0,0,0,1,1,0,458,458,458,up,1,1.5075456000004124,None,,,,pil_001,001,0.5,1.0,2023-03-22_11h50.44.873,stress,2023.1.0,60.019974647632395,
0,1,2,4,5,3,4,6,5,0,3,0,1,1,0,1,0,459,459,459,left,1,1.3900679000007585,None,,,,pil_001,001,0.5,1.0,2023-03-22_11h50.44.873,stress,2023.1.0,60.019974647632395,
0,2,3,1,4,5,4,3,3,5,5,6,1,0,0,1,0,460,460,460,left,1,0.6845779999994193,None,,,,pil_001,001,0.5,1.0,2023-03-22_11h50.44.873,stress,2023.1.0,60.019974647632395,
5,0,3,4,2,1,4,5,6,3,0,3,0,0,1,1,0,461,461,461,up,1,0.9748663000000306,None,,,,pil_001,001,0.5,1.0,2023-03-22_11h50.44.873,stress,2023.1.0,60.019974647632395,
4,2,1,0,3,5,4,5,6,3,0,0,0,1,0,1,0,462,462,462,left,1,1.0677953000003981,None,,,,pil_001,001,0.5,1.0,2023-03-22_11h50.44.873,stress,2023.1.0,60.019974647632395,
5,2,3,1,0,4,4,5,3,6,5,3,0,1,1,1,0,463,463,463,up,1,0.6006201999998666,None,,,,pil_001,001,0.5,1.0,2023-03-22_11h50.44.873,stress,2023.1.0,60.019974647632395,
2,0,5,1,3,4,4,3,0,5,6,3,1,0,0,1,0,464,464,464,left,1,0.9592407999998613,None,,,,pil_001,001,0.5,1.0,2023-03-22_11h50.44.873,stress,2023.1.0,60.019974647632395,
5,3,1,0,4,2,4,0,5,3,3,0,0,0,0,1,0,465,465,465,left,1,0.6842946999995547,None,,,,pil_001,001,0.5,1.0,2023-03-22_11h50.44.873,stress,2023.1.0,60.019974647632395,
1,0,4,5,3,2,4,3,0,6,0,3,1,0,0,1,0,466,466,466,left,1,0.8235495999997511,None,,,,pil_001,001,0.5,1.0,2023-03-22_11h50.44.873,stress,2023.1.0,60.019974647632395,
3,4,2,1,5,0,4,6,3,5,0,0,1,1,1,1,0,467,467,467,up,1,1.3517458000005718,None,,,,pil_001,001,0.5,1.0,2023-03-22_11h50.44.873,stress,2023.1.0,60.019974647632395,
5,1,3,2,0,4,4,0,0,6,3,3,0,0,0,1,0,468,468,468,left,1,1.0252253999997265,None,,,,pil_001,001,0.5,1.0,2023-03-22_11h50.44.873,stress,2023.1.0,60.019974647632395,
2,5,1,3,4,0,4,6,3,0,3,0,0,1,1,1,0,469,469,469,left,0,0.6871811000000889,None,,,,pil_001,001,0.5,1.0,2023-03-22_11h50.44.873,stress,2023.1.0,60.019974647632395,
4,2,3,5,0,1,4,5,3,0,6,3,0,0,1,1,0,470,470,470,up,1,0.9257628000004843,None,,,,pil_001,001,0.5,1.0,2023-03-22_11h50.44.873,stress,2023.1.0,60.019974647632395,
2,1,0,3,5,4,4,0,6,0,6,5,0,1,1,1,0,471,471,471,up,1,0.640736499999548,None,,,,pil_001,001,0.5,1.0,2023-03-22_11h50.44.873,stress,2023.1.0,60.019974647632395,
0,4,1,2,3,5,4,3,6,0,3,6,0,0,1,1,0,472,472,472,up,1,0.9175036999995427,None,,,,pil_001,001,0.5,1.0,2023-03-22_11h50.44.873,stress,2023.1.0,60.019974647632395,
4,2,5,1,0,3,4,6,6,5,5,3,1,1,1,1,0,473,473,473,up,1,0.6857608999998774,None,,,,pil_001,001,0.5,1.0,2023-03-22_11h50.44.873,stress,2023.1.0,60.019974647632395,
3,2,1,5,4,0,4,5,0,3,5,0,0,1,1,1,0,474,474,474,up,1,0.8274780000001556,None,,,,pil_001,001,0.5,1.0,2023-03-22_11h50.44.873,stress,2023.1.0,60.019974647632395,
0,2,1,5,4,3,4,5,5,6,0,0,0,0,0,1,0,475,475,475,left,1,0.92169339999964,None,,,,pil_001,001,0.5,1.0,2023-03-22_11h50.44.873,stress,2023.1.0,60.019974647632395,
1,0,5,4,2,3,4,5,0,3,6,0,0,0,1,1,0,476,476,476,up,1,0.5276601999994455,None,,,,pil_001,001,0.5,1.0,2023-03-22_11h50.44.873,stress,2023.1.0,60.019974647632395,
1,0,5,2,4,3,4,5,6,5,0,6,1,0,1,1,0,477,477,477,up,1,0.7068061999998463,None,,,,pil_001,001,0.5,1.0,2023-03-22_11h50.44.873,stress,2023.1.0,60.019974647632395,
0,1,2,5,4,3,4,5,3,3,0,6,0,1,0,1,0,478,478,478,left,1,1.0719347000003836,None,,,,pil_001,001,0.5,1.0,2023-03-22_11h50.44.873,stress,2023.1.0,60.019974647632395,
4,5,0,2,1,3,4,0,5,3,5,6,0,1,0,1,0,479,479,479,left,1,1.4579758999998376,space,2.716742799999338,,,pil_001,001,0.5,1.0,2023-03-22_11h50.44.873,stress,2023.1.0,60.019974647632395,
1,3,5,0,2,4,4,5,6,6,0,5,0,1,1,1,0,480,480,480,up,1,0.7121452000001227,None,,,,pil_001,001,0.5,1.0,2023-03-22_11h50.44.873,stress,2023.1.0,60.019974647632395,
4,5,3,0,2,1,4,6,3,6,5,0,0,0,0,1,0,481,481,481,left,1,1.4675662999998167,None,,,,pil_001,001,0.5,1.0,2023-03-22_11h50.44.873,stress,2023.1.0,60.019974647632395,
4,0,5,2,3,1,4,0,3,3,5,6,0,1,0,1,0,482,482,482,left,1,0.900875399999677,None,,,,pil_001,001,0.5,1.0,2023-03-22_11h50.44.873,stress,2023.1.0,60.019974647632395,
2,5,0,3,4,1,4,6,0,3,5,3,0,0,1,1,0,483,483,483,up,1,0.6209497999998348,None,,,,pil_001,001,0.5,1.0,2023-03-22_11h50.44.873,stress,2023.1.0,60.019974647632395,
2,5,1,4,3,0,4,5,0,6,5,6,0,1,1,1,0,484,484,484,up,1,1.0085730000000694,None,,,,pil_001,001,0.5,1.0,2023-03-22_11h50.44.873,stress,2023.1.0,60.019974647632395,
0,5,1,2,4,3,4,0,6,6,0,3,1,0,0,1,0,485,485,485,left,1,1.0989934999997786,None,,,,pil_001,001,0.5,1.0,2023-03-22_11h50.44.873,stress,2023.1.0,60.019974647632395,
4,3,0,2,5,1,4,5,3,0,6,5,0,0,1,1,0,486,486,486,up,1,0.546519100000296,None,,,,pil_001,001,0.5,1.0,2023-03-22_11h50.44.873,stress,2023.1.0,60.019974647632395,
4,0,5,2,1,3,4,3,5,0,6,3,1,0,1,1,0,487,487,487,up,1,0.5399713999995583,None,,,,pil_001,001,0.5,1.0,2023-03-22_11h50.44.873,stress,2023.1.0,60.019974647632395,
0,2,3,5,1,4,4,3,0,5,6,6,0,1,0,1,0,488,488,488,left,1,0.9111904000001232,None,,,,pil_001,001,0.5,1.0,2023-03-22_11h50.44.873,stress,2023.1.0,60.019974647632395,
5,3,2,1,4,0,4,0,6,6,5,0,1,0,0,1,0,489,489,489,left,1,1.0202519999993456,None,,,,pil_001,001,0.5,1.0,2023-03-22_11h50.44.873,stress,2023.1.0,60.019974647632395,
1,3,4,2,5,0,4,5,3,6,0,3,0,0,1,1,0,490,490,490,up,1,1.301553999999669,None,,,,pil_001,001,0.5,1.0,2023-03-22_11h50.44.873,stress,2023.1.0,60.019974647632395,
0,1,3,5,2,4,4,0,0,3,6,5,1,1,1,1,0,491,491,491,up,1,0.9359769000002416,None,,,,pil_001,001,0.5,1.0,2023-03-22_11h50.44.873,stress,2023.1.0,60.019974647632395,
5,2,1,0,4,3,4,5,3,0,3,6,0,1,0,1,0,492,492,492,left,1,1.6181274999999005,None,,,,pil_001,001,0.5,1.0,2023-03-22_11h50.44.873,stress,2023.1.0,60.019974647632395,
5,3,4,2,1,0,4,5,0,3,0,6,1,1,1,1,0,493,493,493,up,1,1.0078436999992846,None,,,,pil_001,001,0.5,1.0,2023-03-22_11h50.44.873,stress,2023.1.0,60.019974647632395,
4,2,5,1,3,0,4,6,0,6,3,3,1,0,0,1,0,494,494,494,left,1,2.978616200000033,None,,,,pil_001,001,0.5,1.0,2023-03-22_11h50.44.873,stress,2023.1.0,60.019974647632395,
3,0,1,5,4,2,4,3,5,6,6,0,1,1,1,1,0,495,495,495,up,1,2.648138700000345,None,,,,pil_001,001,0.5,1.0,2023-03-22_11h50.44.873,stress,2023.1.0,60.019974647632395,
3,2,5,0,1,4,4,6,0,3,3,5,1,1,0,1,0,496,496,496,left,1,0.8216318000004321,None,,,,pil_001,001,0.5,1.0,2023-03-22_11h50.44.873,stress,2023.1.0,60.019974647632395,
0,2,4,3,5,1,4,0,3,3,6,6,0,0,1,1,0,497,497,497,up,1,1.2638051000003543,None,,,,pil_001,001,0.5,1.0,2023-03-22_11h50.44.873,stress,2023.1.0,60.019974647632395,
0,5,3,2,1,4,4,0,3,3,5,6,0,0,0,1,0,498,498,498,left,1,1.615083699999559,None,,,,pil_001,001,0.5,1.0,2023-03-22_11h50.44.873,stress,2023.1.0,60.019974647632395,
2,5,3,0,4,1,4,6,0,5,6,0,0,0,1,1,0,499,499,499,up,1,0.9306814000001395,None,,,,pil_001,001,0.5,1.0,2023-03-22_11h50.44.873,stress,2023.1.0,60.019974647632395,
1,4,3,5,0,2,4,6,3,5,0,5,1,0,1,1,0,500,500,500,up,1,1.3309709999994084,None,,,,pil_001,001,0.5,1.0,2023-03-22_11h50.44.873,stress,2023.1.0,60.019974647632395,
5,3,2,0,4,1,4,3,5,0,6,6,1,0,0,1,0,501,501,501,left,1,0.7771732000001066,None,,,,pil_001,001,0.5,1.0,2023-03-22_11h50.44.873,stress,2023.1.0,60.019974647632395,
3,0,1,5,4,2,4,6,3,6,0,3,0,0,0,1,0,502,502,502,left,1,1.6909881000001405,None,,,,pil_001,001,0.5,1.0,2023-03-22_11h50.44.873,stress,2023.1.0,60.019974647632395,
3,4,0,5,1,2,4,6,5,5,6,3,1,0,0,1,0,503,503,503,left,1,1.0568184000003384,None,,,,pil_001,001,0.5,1.0,2023-03-22_11h50.44.873,stress,2023.1.0,60.019974647632395,
4,1,0,5,3,2,4,5,3,5,0,3,1,1,0,1,0,504,504,504,left,1,0.7338625000002139,None,,,,pil_001,001,0.5,1.0,2023-03-22_11h50.44.873,stress,2023.1.0,60.019974647632395,
2,4,1,5,0,3,4,5,6,5,0,6,1,0,1,1,0,505,505,505,up,1,1.2847371000007115,None,,,,pil_001,001,0.5,1.0,2023-03-22_11h50.44.873,stress,2023.1.0,60.019974647632395,
2,0,1,3,4,5,4,5,6,3,0,5,1,0,1,1,0,506,506,506,up,1,0.9704228999999032,None,,,,pil_001,001,0.5,1.0,2023-03-22_11h50.44.873,stress,2023.1.0,60.019974647632395,
3,0,2,1,5,4,4,3,6,5,6,0,0,1,0,1,0,507,507,507,left,1,0.7087355999992724,None,,,,pil_001,001,0.5,1.0,2023-03-22_11h50.44.873,stress,2023.1.0,60.019974647632395,
4,2,1,0,3,5,4,3,5,6,6,0,0,0,1,1,0,508,508,508,up,1,0.5104365999995935,None,,,,pil_001,001,0.5,1.0,2023-03-22_11h50.44.873,stress,2023.1.0,60.019974647632395,
2,5,4,1,3,0,4,6,0,0,5,3,0,0,0,1,0,509,509,509,left,1,0.7899334000003364,space,1.8590131999999358,,,pil_001,001,0.5,1.0,2023-03-22_11h50.44.873,stress,2023.1.0,60.019974647632395,
1,5,3,0,4,2,4,0,6,3,0,6,0,0,1,1,0,510,510,510,up,1,0.8739650000006804,None,,,,pil_001,001,0.5,1.0,2023-03-22_11h50.44.873,stress,2023.1.0,60.019974647632395,
1,2,5,3,0,4,4,3,5,6,5,0,1,1,1,1,0,511,511,511,up,1,1.0182657000004838,None,,,,pil_001,001,0.5,1.0,2023-03-22_11h50.44.873,stress,2023.1.0,60.019974647632395,
3,1,4,5,2,0,4,6,6,5,5,0,0,1,0,1,0,512,512,512,left,1,0.6252196000004915,None,,,,pil_001,001,0.5,1.0,2023-03-22_11h50.44.873,stress,2023.1.0,60.019974647632395,
2,4,5,0,1,3,4,5,3,0,0,5,0,0,1,1,0,513,513,513,up,1,0.7248640999996496,None,,,,pil_001,001,0.5,1.0,2023-03-22_11h50.44.873,stress,2023.1.0,60.019974647632395,
5,1,0,3,2,4,4,5,3,3,0,6,0,1,0,1,0,514,514,514,left,1,1.036881799999719,None,,,,pil_001,001,0.5,1.0,2023-03-22_11h50.44.873,stress,2023.1.0,60.019974647632395,
0,1,3,5,2,4,4,5,3,3,0,6,1,1,1,1,0,515,515,515,up,1,0.6804266999997708,None,,,,pil_001,001,0.5,1.0,2023-03-22_11h50.44.873,stress,2023.1.0,60.019974647632395,
0,5,2,1,3,4,4,3,5,3,6,6,0,0,0,1,0,516,516,516,left,1,0.8250987999999779,None,,,,pil_001,001,0.5,1.0,2023-03-22_11h50.44.873,stress,2023.1.0,60.019974647632395,
4,5,2,0,1,3,4,5,3,0,3,0,1,0,0,1,0,517,517,517,left,1,0.9353227999999945,None,,,,pil_001,001,0.5,1.0,2023-03-22_11h50.44.873,stress,2023.1.0,60.019974647632395,
3,0,4,2,5,1,4,5,0,5,6,6,0,1,1,1,0,518,518,518,up,1,0.4807475000006889,None,,,,pil_001,001,0.5,1.0,2023-03-22_11h50.44.873,stress,2023.1.0,60.019974647632395,
3,4,2,1,5,0,4,3,6,0,0,5,0,0,0,1,0,519,519,519,left,1,0.7247976999997263,None,,,,pil_001,001,0.5,1.0,2023-03-22_11h50.44.873,stress,2023.1.0,60.019974647632395,
1,2,3,0,4,5,4,0,6,5,5,3,0,0,0,1,0,520,520,520,left,1,1.286525999999867,None,,,,pil_001,001,0.5,1.0,2023-03-22_11h50.44.873,stress,2023.1.0,60.019974647632395,
1,4,0,5,2,3,4,5,3,6,0,0,0,0,0,1,0,521,521,521,left,1,1.4806042000000161,None,,,,pil_001,001,0.5,1.0,2023-03-22_11h50.44.873,stress,2023.1.0,60.019974647632395,
3,0,5,4,1,2,4,5,5,3,0,6,0,1,1,1,0,522,522,522,up,1,0.6094648999996934,None,,,,pil_001,001,0.5,1.0,2023-03-22_11h50.44.873,stress,2023.1.0,60.019974647632395,
0,4,2,3,1,5,4,6,6,0,3,5,0,1,0,1,0,523,523,523,left,1,1.3971708999997645,None,,,,pil_001,001,0.5,1.0,2023-03-22_11h50.44.873,stress,2023.1.0,60.019974647632395,
0,5,4,2,3,1,4,6,6,3,0,5,0,1,1,1,0,524,524,524,up,1,0.9964063999996142,None,,,,pil_001,001,0.5,1.0,2023-03-22_11h50.44.873,stress,2023.1.0,60.019974647632395,
1,4,5,0,2,3,4,5,6,0,0,3,1,0,0,1,0,525,525,525,up,0,1.1807217999994464,None,,,,pil_001,001,0.5,1.0,2023-03-22_11h50.44.873,stress,2023.1.0,60.019974647632395,
0,1,5,2,3,4,4,3,3,6,0,6,1,1,0,1,0,526,526,526,left,1,1.1931497000005038,None,,,,pil_001,001,0.5,1.0,2023-03-22_11h50.44.873,stress,2023.1.0,60.019974647632395,
4,2,3,5,0,1,4,5,5,3,6,6,1,0,1,1,0,527,527,527,up,1,1.1582104999997682,None,,,,pil_001,001,0.5,1.0,2023-03-22_11h50.44.873,stress,2023.1.0,60.019974647632395,
2,1,5,0,4,3,4,5,0,6,0,3,1,1,0,1,0,528,528,528,left,1,1.0412513000001127,None,,,,pil_001,001,0.5,1.0,2023-03-22_11h50.44.873,stress,2023.1.0,60.019974647632395,
4,3,0,5,1,2,4,6,0,5,0,5,0,1,0,1,0,529,529,529,left,1,0.7458383000002868,None,,,,pil_001,001,0.5,1.0,2023-03-22_11h50.44.873,stress,2023.1.0,60.019974647632395,
5,0,4,1,3,2,4,5,0,6,6,3,1,1,0,1,0,530,530,530,left,1,0.6803420000005644,None,,,,pil_001,001,0.5,1.0,2023-03-22_11h50.44.873,stress,2023.1.0,60.019974647632395,
5,4,0,1,3,2,4,6,5,6,0,5,1,0,1,1,0,531,531,531,up,1,0.5754016000000775,None,,,,pil_001,001,0.5,1.0,2023-03-22_11h50.44.873,stress,2023.1.0,60.019974647632395,
4,0,1,2,5,3,4,6,3,5,0,0,1,0,0,1,0,532,532,532,left,1,1.2003248000000895,None,,,,pil_001,001,0.5,1.0,2023-03-22_11h50.44.873,stress,2023.1.0,60.019974647632395,
5,4,1,3,2,0,4,3,6,5,3,0,1,1,1,1,0,533,533,533,up,1,0.5414811999999074,None,,,,pil_001,001,0.5,1.0,2023-03-22_11h50.44.873,stress,2023.1.0,60.019974647632395,
4,0,5,2,1,3,4,3,5,0,6,6,1,0,1,1,0,534,534,534,left,0,0.6616664000002856,None,,,,pil_001,001,0.5,1.0,2023-03-22_11h50.44.873,stress,2023.1.0,60.019974647632395,
1,3,4,2,0,5,4,5,3,0,5,0,1,1,1,1,0,535,535,535,up,1,0.7747350999998162,None,,,,pil_001,001,0.5,1.0,2023-03-22_11h50.44.873,stress,2023.1.0,60.019974647632395,
5,3,2,0,4,1,4,3,5,5,0,3,0,0,1,1,0,536,536,536,up,1,0.6252061000004687,None,,,,pil_001,001,0.5,1.0,2023-03-22_11h50.44.873,stress,2023.1.0,60.019974647632395,
4,5,0,3,2,1,4,3,3,0,0,6,1,0,1,1,0,537,537,537,up,1,0.7311893999994936,None,,,,pil_001,001,0.5,1.0,2023-03-22_11h50.44.873,stress,2023.1.0,60.019974647632395,
3,1,4,5,2,0,4,5,5,3,0,3,1,1,0,1,0,538,538,538,left,1,0.6835353000005853,None,,,,pil_001,001,0.5,1.0,2023-03-22_11h50.44.873,stress,2023.1.0,60.019974647632395,
4,0,3,5,2,1,4,0,3,5,0,6,1,1,1,1,0,539,539,539,up,1,0.5545422000004692,space,1.6424495000001116,,,pil_001,001,0.5,1.0,2023-03-22_11h50.44.873,stress,2023.1.0,60.019974647632395,
5,4,2,3,0,1,4,6,5,3,0,5,1,0,1,1,0,540,540,540,up,1,0.5829291000000012,None,,,,pil_001,001,0.5,1.0,2023-03-22_11h50.44.873,stress,2023.1.0,60.019974647632395,
5,1,4,3,2,0,4,6,0,3,3,6,1,1,1,1,0,541,541,541,up,1,0.7011762000001909,None,,,,pil_001,001,0.5,1.0,2023-03-22_11h50.44.873,stress,2023.1.0,60.019974647632395,
3,1,2,5,4,0,4,3,6,6,5,0,1,0,0,1,0,542,542,542,left,1,0.6843813999994381,None,,,,pil_001,001,0.5,1.0,2023-03-22_11h50.44.873,stress,2023.1.0,60.019974647632395,
5,1,2,3,4,0,4,3,5,0,0,6,1,1,1,1,0,543,543,543,up,1,0.7012248999999429,None,,,,pil_001,001,0.5,1.0,2023-03-22_11h50.44.873,stress,2023.1.0,60.019974647632395,
5,4,2,0,1,3,4,5,5,3,6,0,1,1,1,1,0,544,544,544,up,1,0.7372604000001957,None,,,,pil_001,001,0.5,1.0,2023-03-22_11h50.44.873,stress,2023.1.0,60.019974647632395,
0,1,3,4,5,2,4,5,5,6,0,3,0,0,1,1,0,545,545,545,up,1,0.6656425999999556,None,,,,pil_001,001,0.5,1.0,2023-03-22_11h50.44.873,stress,2023.1.0,60.019974647632395,
1,3,2,5,0,4,4,6,3,5,0,3,1,0,0,1,0,546,546,546,left,1,1.6592184000000998,None,,,,pil_001,001,0.5,1.0,2023-03-22_11h50.44.873,stress,2023.1.0,60.019974647632395,
0,5,1,4,3,2,4,3,3,0,6,5,1,0,0,1,0,547,547,547,left,1,0.7589678999993339,None,,,,pil_001,001,0.5,1.0,2023-03-22_11h50.44.873,stress,2023.1.0,60.019974647632395,
4,3,2,1,5,0,4,6,3,0,6,0,0,1,0,1,0,548,548,548,left,1,1.2740936000000147,None,,,,pil_001,001,0.5,1.0,2023-03-22_11h50.44.873,stress,2023.1.0,60.019974647632395,
1,0,2,5,4,3,4,5,3,3,6,0,1,1,0,1,0,549,549,549,left,1,1.4599857000002885,None,,,,pil_001,001,0.5,1.0,2023-03-22_11h50.44.873,stress,2023.1.0,60.019974647632395,
5,3,0,1,4,2,4,5,0,6,6,0,0,1,0,1,0,550,550,550,left,1,0.980490899999495,None,,,,pil_001,001,0.5,1.0,2023-03-22_11h50.44.873,stress,2023.1.0,60.019974647632395,
4,2,1,3,5,0,4,5,6,5,6,3,1,1,1,1,0,551,551,551,up,1,1.141056500000559,None,,,,pil_001,001,0.5,1.0,2023-03-22_11h50.44.873,stress,2023.1.0,60.019974647632395,
0,2,3,5,1,4,4,0,0,5,3,5,1,0,1,1,0,552,552,552,up,1,1.8275579000001017,None,,,,pil_001,001,0.5,1.0,2023-03-22_11h50.44.873,stress,2023.1.0,60.019974647632395,
0,2,4,1,5,3,4,3,5,6,0,0,1,0,1,1,0,553,553,553,up,1,0.6377568000007159,None,,,,pil_001,001,0.5,1.0,2023-03-22_11h50.44.873,stress,2023.1.0,60.019974647632395,
2,0,3,5,4,1,4,3,5,6,5,6,1,1,1,1,0,554,554,554,up,1,1.5678123999996387,None,,,,pil_001,001,0.5,1.0,2023-03-22_11h50.44.873,stress,2023.1.0,60.019974647632395,
3,0,2,4,1,5,4,0,3,0,3,6,0,0,1,1,0,555,555,555,up,1,0.8705045999995491,None,,,,pil_001,001,0.5,1.0,2023-03-22_11h50.44.873,stress,2023.1.0,60.019974647632395,
3,4,0,5,1,2,4,3,5,5,6,0,0,0,1,1,0,556,556,556,up,1,1.5908671000006507,None,,,,pil_001,001,0.5,1.0,2023-03-22_11h50.44.873,stress,2023.1.0,60.019974647632395,
5,4,2,0,3,1,4,6,3,6,0,5,1,0,0,1,0,557,557,557,left,1,1.0679963999991742,None,,,,pil_001,001,0.5,1.0,2023-03-22_11h50.44.873,stress,2023.1.0,60.019974647632395,
3,0,2,5,1,4,4,3,0,6,0,5,1,1,0,1,0,558,558,558,left,1,0.6045389000000796,None,,,,pil_001,001,0.5,1.0,2023-03-22_11h50.44.873,stress,2023.1.0,60.019974647632395,
5,2,0,4,3,1,4,6,5,3,6,3,0,1,0,1,0,559,559,559,left,1,1.5983157999999094,None,,,,pil_001,001,0.5,1.0,2023-03-22_11h50.44.873,stress,2023.1.0,60.019974647632395,
5,0,2,1,3,4,4,0,3,0,6,5,1,0,1,1,0,560,560,560,up,1,0.8219250000001921,None,,,,pil_001,001,0.5,1.0,2023-03-22_11h50.44.873,stress,2023.1.0,60.019974647632395,
2,4,3,1,5,0,4,5,3,0,3,6,1,1,0,1,0,561,561,561,left,1,1.2093013000003339,None,,,,pil_001,001,0.5,1.0,2023-03-22_11h50.44.873,stress,2023.1.0,60.019974647632395,
0,5,3,1,4,2,4,0,6,3,3,5,1,0,1,1,0,562,562,562,up,1,0.657133600000634,None,,,,pil_001,001,0.5,1.0,2023-03-22_11h50.44.873,stress,2023.1.0,60.019974647632395,
1,0,2,4,5,3,4,0,6,3,5,3,1,0,1,1,0,563,563,563,up,1,1.0369475999996212,None,,,,pil_001,001,0.5,1.0,2023-03-22_11h50.44.873,stress,2023.1.0,60.019974647632395,
1,3,4,5,2,0,4,6,5,6,3,3,0,0,1,1,0,564,564,564,up,1,1.0590249000006224,None,,,,pil_001,001,0.5,1.0,2023-03-22_11h50.44.873,stress,2023.1.0,60.019974647632395,
4,1,0,3,5,2,4,0,3,5,5,0,1,0,0,1,0,565,565,565,left,1,1.1604277999995247,None,,,,pil_001,001,0.5,1.0,2023-03-22_11h50.44.873,stress,2023.1.0,60.019974647632395,
0,2,1,5,4,3,4,6,5,0,5,0,0,1,0,1,0,566,566,566,left,1,0.6903713000001517,None,,,,pil_001,001,0.5,1.0,2023-03-22_11h50.44.873,stress,2023.1.0,60.019974647632395,
0,5,2,3,1,4,4,6,0,3,5,6,0,0,0,1,0,567,567,567,left,1,0.47937889999957406,None,,,,pil_001,001,0.5,1.0,2023-03-22_11h50.44.873,stress,2023.1.0,60.019974647632395,
5,3,2,1,0,4,4,5,6,3,5,3,0,1,0,1,0,568,568,568,left,1,1.276444199999787,None,,,,pil_001,001,0.5,1.0,2023-03-22_11h50.44.873,stress,2023.1.0,60.019974647632395,
3,1,2,5,4,0,4,5,0,6,5,3,0,0,1,1,0,569,569,569,up,1,0.6569141999998465,space,2.1681664000007004,,,pil_001,001,0.5,1.0,2023-03-22_11h50.44.873,stress,2023.1.0,60.019974647632395,
1,4,2,0,5,3,4,0,0,5,3,6,0,1,1,1,0,570,570,570,up,1,1.284202599999844,None,,,,pil_001,001,0.5,1.0,2023-03-22_11h50.44.873,stress,2023.1.0,60.019974647632395,
0,5,2,3,1,4,4,6,5,0,6,0,1,1,1,1,0,571,571,571,up,1,0.6947503999999753,None,,,,pil_001,001,0.5,1.0,2023-03-22_11h50.44.873,stress,2023.1.0,60.019974647632395,
0,3,2,4,5,1,4,5,6,3,3,6,0,1,1,1,0,572,572,572,up,1,0.5359850000004371,None,,,,pil_001,001,0.5,1.0,2023-03-22_11h50.44.873,stress,2023.1.0,60.019974647632395,
1,3,2,5,0,4,4,5,6,3,0,3,1,1,0,1,0,573,573,573,left,1,0.7569671000001108,None,,,,pil_001,001,0.5,1.0,2023-03-22_11h50.44.873,stress,2023.1.0,60.019974647632395,
3,2,5,4,0,1,4,5,0,3,3,6,0,1,1,1,0,574,574,574,up,1,1.1972209999994448,None,,,,pil_001,001,0.5,1.0,2023-03-22_11h50.44.873,stress,2023.1.0,60.019974647632395,
4,0,1,5,2,3,4,0,6,5,6,5,0,1,0,1,0,575,575,575,left,1,0.8744458000001032,None,,,,pil_001,001,0.5,1.0,2023-03-22_11h50.44.873,stress,2023.1.0,60.019974647632395,
1,0,3,2,5,4,4,6,3,0,5,5,1,1,0,1,0,576,576,576,left,1,1.2306451999993442,None,,,,pil_001,001,0.5,1.0,2023-03-22_11h50.44.873,stress,2023.1.0,60.019974647632395,
1,2,3,5,0,4,4,0,0,3,6,5,0,0,0,1,0,577,577,577,left,1,1.877778600000056,None,,,,pil_001,001,0.5,1.0,2023-03-22_11h50.44.873,stress,2023.1.0,60.019974647632395,
3,5,4,2,1,0,4,0,5,3,6,3,0,0,1,1,0,578,578,578,up,1,2.5932333000000654,None,,,,pil_001,001,0.5,1.0,2023-03-22_11h50.44.873,stress,2023.1.0,60.019974647632395,
1,4,5,0,2,3,4,3,6,5,3,0,0,1,1,1,0,579,579,579,up,1,1.0969740999998976,None,,,,pil_001,001,0.5,1.0,2023-03-22_11h50.44.873,stress,2023.1.0,60.019974647632395,
2,5,1,4,0,3,4,3,3,6,5,5,0,0,1,1,0,580,580,580,up,1,0.951544799999283,None,,,,pil_001,001,0.5,1.0,2023-03-22_11h50.44.873,stress,2023.1.0,60.019974647632395,
1,3,4,2,0,5,4,6,5,0,5,0,0,0,0,1,0,581,581,581,left,1,1.3189316999996663,None,,,,pil_001,001,0.5,1.0,2023-03-22_11h50.44.873,stress,2023.1.0,60.019974647632395,
2,1,4,3,5,0,4,0,5,3,0,5,0,0,1,1,0,582,582,582,up,1,0.8262834999995903,None,,,,pil_001,001,0.5,1.0,2023-03-22_11h50.44.873,stress,2023.1.0,60.019974647632395,
1,0,5,2,4,3,4,5,5,3,0,6,0,0,0,1,0,583,583,583,left,1,1.1453725999999733,None,,,,pil_001,001,0.5,1.0,2023-03-22_11h50.44.873,stress,2023.1.0,60.019974647632395,
2,4,0,1,3,5,4,5,6,6,0,3,1,0,1,1,0,584,584,584,up,1,0.7735103999993953,None,,,,pil_001,001,0.5,1.0,2023-03-22_11h50.44.873,stress,2023.1.0,60.019974647632395,
2,1,4,3,0,5,4,3,5,3,0,0,0,0,0,1,0,585,585,585,up,0,0.8912575000003926,None,,,,pil_001,001,0.5,1.0,2023-03-22_11h50.44.873,stress,2023.1.0,60.019974647632395,
3,4,1,2,0,5,4,0,0,5,6,5,0,0,1,1,0,586,586,586,up,1,0.8745288000000073,None,,,,pil_001,001,0.5,1.0,2023-03-22_11h50.44.873,stress,2023.1.0,60.019974647632395,
2,3,4,1,0,5,4,5,3,0,3,5,1,1,0,1,0,587,587,587,left,1,0.8579051000006075,None,,,,pil_001,001,0.5,1.0,2023-03-22_11h50.44.873,stress,2023.1.0,60.019974647632395,
3,0,1,2,4,5,4,5,6,0,3,3,0,1,1,1,0,588,588,588,up,1,0.6540107999999236,None,,,,pil_001,001,0.5,1.0,2023-03-22_11h50.44.873,stress,2023.1.0,60.019974647632395,
2,5,3,0,1,4,4,6,0,6,5,3,1,1,0,1,0,589,589,589,left,1,0.6292861000001722,None,,,,pil_001,001,0.5,1.0,2023-03-22_11h50.44.873,stress,2023.1.0,60.019974647632395,
5,0,1,2,4,3,4,6,0,3,5,0,0,0,0,1,0,590,590,590,left,1,1.354056500000297,None,,,,pil_001,001,0.5,1.0,2023-03-22_11h50.44.873,stress,2023.1.0,60.019974647632395,
5,3,0,4,2,1,4,5,3,6,3,5,1,0,0,1,0,591,591,591,left,1,1.429374899999857,None,,,,pil_001,001,0.5,1.0,2023-03-22_11h50.44.873,stress,2023.1.0,60.019974647632395,
1,0,5,4,2,3,4,5,6,6,3,0,1,1,0,1,0,592,592,592,left,1,1.206589200000053,None,,,,pil_001,001,0.5,1.0,2023-03-22_11h50.44.873,stress,2023.1.0,60.019974647632395,
0,4,1,2,5,3,4,5,6,0,0,3,0,1,0,1,0,593,593,593,left,1,0.8270658999999796,None,,,,pil_001,001,0.5,1.0,2023-03-22_11h50.44.873,stress,2023.1.0,60.019974647632395,
5,4,1,2,0,3,4,0,3,6,0,3,1,0,0,1,0,594,594,594,left,1,0.6893774999998641,None,,,,pil_001,001,0.5,1.0,2023-03-22_11h50.44.873,stress,2023.1.0,60.019974647632395,
4,3,5,0,2,1,4,3,5,0,6,5,1,0,1,1,0,595,595,595,up,1,0.7951167999999598,left,0.5504308999998102,,,pil_001,001,0.5,1.0,2023-03-22_11h50.44.873,stress,2023.1.0,60.019974647632395,
0,5,1,3,4,2,4,0,5,3,0,3,1,0,1,1,0,596,596,596,up,1,0.7469895999993241,None,,,,pil_001,001,0.5,1.0,2023-03-22_11h50.44.873,stress,2023.1.0,60.019974647632395,
1,4,5,2,3,0,4,6,5,3,0,6,1,1,1,1,0,597,597,597,up,1,0.8899726999998165,None,,,,pil_001,001,0.5,1.0,2023-03-22_11h50.44.873,stress,2023.1.0,60.019974647632395,
0,2,4,1,3,5,4,5,3,0,5,0,1,1,1,1,0,598,598,598,up,1,0.7198263000000225,None,,,,pil_001,001,0.5,1.0,2023-03-22_11h50.44.873,stress,2023.1.0,60.019974647632395,
4,5,3,0,2,1,4,3,0,5,5,6,1,1,0,1,0,599,599,599,left,1,1.2738815000002432,space,3.2496949999995195,,,pil_001,001,0.5,1.0,2023-03-22_11h50.44.873,stress,2023.1.0,60.019974647632395,
,,,,,,,,,,,,,,,,,,,,,,,,,space,1.8265216999998302,pil_001,001,0.5,1.0,2023-03-22_11h50.44.873,stress,2023.1.0,60.019974647632395,
