pos1,pos2,pos3,pos4,pos5,pos6,shape1,shape2,shape3,shape4,shape5,shape6,singleton,target_color,target_orientation,cue_validity,trials.thisRepN,trials.thisTrialN,trials.thisN,trials.thisIndex,search_response.keys,search_response.corr,search_response.rt,key_block.keys,key_block.rt,end_key.keys,end_key.rt,participant,session,distractor_prevalence,validity,date,expName,psychopyVersion,frameRate,
0,2,1,5,3,4,4,5,3,0,5,6,1,1,0,1,0,0,0,0,left,1,2.7537336999994295,None,,,,pil_004,001,0.9,1.0,2023-03-24_17h13.02.887,stress,2023.1.0,60.01990259971459,
0,4,3,2,1,5,4,3,6,0,0,6,1,1,0,1,0,1,1,1,left,1,4.400327399998787,None,,,,pil_004,001,0.9,1.0,2023-03-24_17h13.02.887,stress,2023.1.0,60.01990259971459,
4,0,5,2,3,1,4,5,6,0,3,3,1,1,1,1,0,2,2,2,up,1,1.8814176000014413,None,,,,pil_004,001,0.9,1.0,2023-03-24_17h13.02.887,stress,2023.1.0,60.01990259971459,
1,4,2,0,5,3,4,3,5,0,0,3,1,1,1,1,0,3,3,3,up,1,1.4741093999982695,None,,,,pil_004,001,0.9,1.0,2023-03-24_17h13.02.887,stress,2023.1.0,60.01990259971459,
5,3,0,1,2,4,4,0,3,5,6,3,1,1,0,1,0,4,4,4,left,1,2.168038700001489,None,,,,pil_004,001,0.9,1.0,2023-03-24_17h13.02.887,stress,2023.1.0,60.01990259971459,
1,3,0,2,4,5,4,3,5,0,3,5,1,1,1,1,0,5,5,5,up,1,1.7878416999992623,None,,,,pil_004,001,0.9,1.0,2023-03-24_17h13.02.887,stress,2023.1.0,60.01990259971459,
0,2,4,5,1,3,4,6,3,3,6,5,1,1,1,1,0,6,6,6,left,0,1.0609072000006563,None,,,,pil_004,001,0.9,1.0,2023-03-24_17h13.02.887,stress,2023.1.0,60.01990259971459,
2,1,0,3,5,4,4,3,6,0,3,0,1,1,1,1,0,7,7,7,up,1,2.0967846999992616,None,,,,pil_004,001,0.9,1.0,2023-03-24_17h13.02.887,stress,2023.1.0,60.01990259971459,
3,0,2,5,4,1,4,6,5,5,3,3,1,1,0,1,0,8,8,8,left,1,1.7964759999995294,None,,,,pil_004,001,0.9,1.0,2023-03-24_17h13.02.887,stress,2023.1.0,60.01990259971459,
5,1,2,4,0,3,4,0,5,6,0,3,1,1,1,1,0,9,9,9,up,1,1.276440300000104,None,,,,pil_004,001,0.9,1.0,2023-03-24_17h13.02.887,stress,2023.1.0,60.01990259971459,
4,2,3,1,5,0,4,6,3,6,3,5,1,0,1,1,0,10,10,10,up,1,1.5587670999993861,None,,,,pil_004,001,0.9,1.0,2023-03-24_17h13.02.887,stress,2023.1.0,60.01990259971459,
5,2,0,1,4,3,4,3,5,6,5,0,1,0,1,1,0,11,11,11,up,1,1.5592813999974169,None,,,,pil_004,001,0.9,1.0,2023-03-24_17h13.02.887,stress,2023.1.0,60.01990259971459,
4,1,5,3,0,2,4,3,6,5,0,5,1,0,1,1,0,12,12,12,up,1,1.3553327999979956,None,,,,pil_004,001,0.9,1.0,2023-03-24_17h13.02.887,stress,2023.1.0,60.01990259971459,
5,2,1,4,0,3,4,0,6,5,3,6,1,0,1,1,0,13,13,13,up,1,1.170726399999694,None,,,,pil_004,001,0.9,1.0,2023-03-24_17h13.02.887,stress,2023.1.0,60.01990259971459,
3,0,4,2,1,5,4,5,6,0,3,6,1,0,1,1,0,14,14,14,up,1,1.22183479999876,None,,,,pil_004,001,0.9,1.0,2023-03-24_17h13.02.887,stress,2023.1.0,60.01990259971459,
1,3,0,2,5,4,4,0,3,5,3,6,1,1,1,1,0,15,15,15,up,1,0.9444178999983706,None,,,,pil_004,001,0.9,1.0,2023-03-24_17h13.02.887,stress,2023.1.0,60.01990259971459,
5,2,3,0,4,1,4,3,5,0,3,5,1,0,1,1,0,16,16,16,up,1,1.6356964000005974,None,,,,pil_004,001,0.9,1.0,2023-03-24_17h13.02.887,stress,2023.1.0,60.01990259971459,
5,1,4,3,2,0,4,0,5,6,6,3,0,0,0,1,0,17,17,17,left,1,0.8204102000017883,None,,,,pil_004,001,0.9,1.0,2023-03-24_17h13.02.887,stress,2023.1.0,60.01990259971459,
2,0,1,3,5,4,4,0,5,3,6,5,0,1,0,1,0,18,18,18,left,1,0.9707730999980413,None,,,,pil_004,001,0.9,1.0,2023-03-24_17h13.02.887,stress,2023.1.0,60.01990259971459,
1,4,0,5,3,2,4,0,3,3,5,6,1,0,1,1,0,19,19,19,up,1,1.2414622999967833,None,,,,pil_004,001,0.9,1.0,2023-03-24_17h13.02.887,stress,2023.1.0,60.01990259971459,
0,2,3,1,5,4,4,3,6,0,0,5,1,0,1,1,0,20,20,20,up,1,1.1918941000003542,None,,,,pil_004,001,0.9,1.0,2023-03-24_17h13.02.887,stress,2023.1.0,60.01990259971459,
2,1,5,0,4,3,4,6,3,6,0,3,0,0,0,1,0,21,21,21,left,1,1.2984021000011126,None,,,,pil_004,001,0.9,1.0,2023-03-24_17h13.02.887,stress,2023.1.0,60.01990259971459,
2,5,3,0,4,1,4,6,5,3,0,5,0,0,0,1,0,22,22,22,left,1,0.8185311000015645,None,,,,pil_004,001,0.9,1.0,2023-03-24_17h13.02.887,stress,2023.1.0,60.01990259971459,
2,0,3,4,5,1,4,3,6,3,0,6,1,0,1,1,0,23,23,23,up,1,0.7250687000014295,None,,,,pil_004,001,0.9,1.0,2023-03-24_17h13.02.887,stress,2023.1.0,60.01990259971459,
2,0,3,5,1,4,4,5,3,0,5,3,1,0,0,1,0,24,24,24,left,1,0.6800508000014815,None,,,,pil_004,001,0.9,1.0,2023-03-24_17h13.02.887,stress,2023.1.0,60.01990259971459,
0,1,4,2,3,5,4,3,6,0,3,6,1,1,0,1,0,25,25,25,left,1,2.2390373000016552,None,,,,pil_004,001,0.9,1.0,2023-03-24_17h13.02.887,stress,2023.1.0,60.01990259971459,
2,5,1,4,0,3,4,3,3,6,0,6,1,0,0,1,0,26,26,26,up,0,0.640688899999077,None,,,,pil_004,001,0.9,1.0,2023-03-24_17h13.02.887,stress,2023.1.0,60.01990259971459,
4,3,5,0,1,2,4,3,5,0,0,6,1,0,0,1,0,27,27,27,left,1,1.1853355999992345,None,,,,pil_004,001,0.9,1.0,2023-03-24_17h13.02.887,stress,2023.1.0,60.01990259971459,
4,5,3,0,2,1,4,5,3,0,6,5,1,0,1,1,0,28,28,28,up,1,1.6691510999989987,None,,,,pil_004,001,0.9,1.0,2023-03-24_17h13.02.887,stress,2023.1.0,60.01990259971459,
4,0,2,1,3,5,4,3,6,5,5,0,1,0,1,1,0,29,29,29,up,1,1.4796764999991865,None,,,,pil_004,001,0.9,1.0,2023-03-24_17h13.02.887,stress,2023.1.0,60.01990259971459,
0,2,1,5,4,3,4,0,6,3,3,5,1,0,1,1,0,30,30,30,up,1,1.0155087999992247,None,,,,pil_004,001,0.9,1.0,2023-03-24_17h13.02.887,stress,2023.1.0,60.01990259971459,
2,5,3,4,1,0,4,5,6,3,5,3,1,0,1,1,0,31,31,31,up,1,1.1612324999987322,None,,,,pil_004,001,0.9,1.0,2023-03-24_17h13.02.887,stress,2023.1.0,60.01990259971459,
3,5,0,4,1,2,4,6,0,0,3,3,1,1,0,1,0,32,32,32,left,1,0.7744744000010542,None,,,,pil_004,001,0.9,1.0,2023-03-24_17h13.02.887,stress,2023.1.0,60.01990259971459,
0,1,2,3,4,5,4,5,3,0,6,6,1,1,0,1,0,33,33,33,left,1,1.1952695999971183,None,,,,pil_004,001,0.9,1.0,2023-03-24_17h13.02.887,stress,2023.1.0,60.01990259971459,
2,5,3,4,1,0,4,3,5,0,3,6,1,0,1,1,0,34,34,34,up,1,1.7150442999991355,None,,,,pil_004,001,0.9,1.0,2023-03-24_17h13.02.887,stress,2023.1.0,60.01990259971459,
0,1,3,5,4,2,4,5,5,6,0,3,1,1,0,1,0,35,35,35,left,1,1.3327678999994532,None,,,,pil_004,001,0.9,1.0,2023-03-24_17h13.02.887,stress,2023.1.0,60.01990259971459,
2,3,5,0,1,4,4,0,3,6,0,5,0,1,1,1,0,36,36,36,up,1,0.6972305000017514,None,,,,pil_004,001,0.9,1.0,2023-03-24_17h13.02.887,stress,2023.1.0,60.01990259971459,
4,2,3,5,0,1,4,3,3,6,0,0,1,1,1,1,0,37,37,37,up,1,0.9249419000007038,None,,,,pil_004,001,0.9,1.0,2023-03-24_17h13.02.887,stress,2023.1.0,60.01990259971459,
0,1,2,4,5,3,4,5,0,5,3,6,1,1,1,1,0,38,38,38,up,1,0.9626305000019784,None,,,,pil_004,001,0.9,1.0,2023-03-24_17h13.02.887,stress,2023.1.0,60.01990259971459,
2,4,1,3,5,0,4,5,3,3,5,0,1,0,0,1,0,39,39,39,up,0,0.8673003000003519,space,39.72576399999889,,,pil_004,001,0.9,1.0,2023-03-24_17h13.02.887,stress,2023.1.0,60.01990259971459,
4,2,0,1,3,5,4,3,6,3,5,6,1,0,1,1,0,40,40,40,up,1,1.0405957000002672,None,,,,pil_004,001,0.9,1.0,2023-03-24_17h13.02.887,stress,2023.1.0,60.01990259971459,
3,0,5,2,1,4,4,6,3,5,3,5,1,0,0,1,0,41,41,41,left,1,1.1662156999991566,None,,,,pil_004,001,0.9,1.0,2023-03-24_17h13.02.887,stress,2023.1.0,60.01990259971459,
3,4,0,1,5,2,4,6,3,5,3,5,1,1,0,1,0,42,42,42,left,1,0.7178126000035263,None,,,,pil_004,001,0.9,1.0,2023-03-24_17h13.02.887,stress,2023.1.0,60.01990259971459,
2,5,4,0,3,1,4,6,0,3,3,6,1,1,1,1,0,43,43,43,up,1,0.9680583999979717,None,,,,pil_004,001,0.9,1.0,2023-03-24_17h13.02.887,stress,2023.1.0,60.01990259971459,
1,5,3,2,0,4,4,5,3,5,6,0,1,0,1,1,0,44,44,44,up,1,1.7497836999973515,None,,,,pil_004,001,0.9,1.0,2023-03-24_17h13.02.887,stress,2023.1.0,60.01990259971459,
5,3,1,4,0,2,4,3,6,5,6,0,1,0,0,1,0,45,45,45,left,1,2.417842099999689,None,,,,pil_004,001,0.9,1.0,2023-03-24_17h13.02.887,stress,2023.1.0,60.01990259971459,
5,4,1,0,3,2,4,0,3,3,6,5,1,1,0,1,0,46,46,46,left,1,0.8190359000000171,None,,,,pil_004,001,0.9,1.0,2023-03-24_17h13.02.887,stress,2023.1.0,60.01990259971459,
2,5,3,1,4,0,4,5,0,6,0,3,1,0,1,1,0,47,47,47,up,1,1.4618493000016315,None,,,,pil_004,001,0.9,1.0,2023-03-24_17h13.02.887,stress,2023.1.0,60.01990259971459,
3,1,4,0,2,5,4,0,5,3,6,5,0,1,1,1,0,48,48,48,up,1,1.610965900003066,None,,,,pil_004,001,0.9,1.0,2023-03-24_17h13.02.887,stress,2023.1.0,60.01990259971459,
5,2,4,0,1,3,4,0,5,6,6,3,1,0,0,1,0,49,49,49,left,1,1.163216500000999,None,,,,pil_004,001,0.9,1.0,2023-03-24_17h13.02.887,stress,2023.1.0,60.01990259971459,
4,2,5,3,1,0,4,0,6,5,3,5,1,1,1,1,0,50,50,50,up,1,1.6404895000014221,None,,,,pil_004,001,0.9,1.0,2023-03-24_17h13.02.887,stress,2023.1.0,60.01990259971459,
5,2,3,1,0,4,4,6,3,6,0,3,1,1,1,1,0,51,51,51,up,1,0.9799203000002308,None,,,,pil_004,001,0.9,1.0,2023-03-24_17h13.02.887,stress,2023.1.0,60.01990259971459,
1,0,5,4,3,2,4,3,6,3,6,5,1,0,0,1,0,52,52,52,left,1,1.1124333000007027,None,,,,pil_004,001,0.9,1.0,2023-03-24_17h13.02.887,stress,2023.1.0,60.01990259971459,
3,4,2,5,0,1,4,5,6,0,3,3,1,0,1,1,0,53,53,53,up,1,1.9460466999989876,None,,,,pil_004,001,0.9,1.0,2023-03-24_17h13.02.887,stress,2023.1.0,60.01990259971459,
5,3,1,4,0,2,4,3,3,5,0,6,1,1,0,1,0,54,54,54,left,1,1.3727304999993066,None,,,,pil_004,001,0.9,1.0,2023-03-24_17h13.02.887,stress,2023.1.0,60.01990259971459,
1,3,4,0,5,2,4,3,6,5,6,3,1,1,1,1,0,55,55,55,up,1,1.9552444000000833,None,,,,pil_004,001,0.9,1.0,2023-03-24_17h13.02.887,stress,2023.1.0,60.01990259971459,
1,4,3,0,2,5,4,5,0,3,0,6,1,1,0,1,0,56,56,56,left,1,1.0455901000023005,None,,,,pil_004,001,0.9,1.0,2023-03-24_17h13.02.887,stress,2023.1.0,60.01990259971459,
3,1,5,2,4,0,4,5,5,0,3,0,1,0,1,1,0,57,57,57,up,1,2.1338051999991876,None,,,,pil_004,001,0.9,1.0,2023-03-24_17h13.02.887,stress,2023.1.0,60.01990259971459,
4,2,5,1,0,3,4,3,5,6,3,5,1,1,0,1,0,58,58,58,left,1,0.9908391000026313,None,,,,pil_004,001,0.9,1.0,2023-03-24_17h13.02.887,stress,2023.1.0,60.01990259971459,
3,4,2,1,0,5,4,0,6,5,3,5,1,1,0,1,0,59,59,59,left,1,0.7177303999997093,None,,,,pil_004,001,0.9,1.0,2023-03-24_17h13.02.887,stress,2023.1.0,60.01990259971459,
0,2,3,1,4,5,4,5,6,3,0,0,1,1,1,1,0,60,60,60,left,0,1.285184799999115,None,,,,pil_004,001,0.9,1.0,2023-03-24_17h13.02.887,stress,2023.1.0,60.01990259971459,
3,4,2,1,0,5,4,3,6,0,0,5,1,0,1,1,0,61,61,61,up,1,1.5215118999985862,None,,,,pil_004,001,0.9,1.0,2023-03-24_17h13.02.887,stress,2023.1.0,60.01990259971459,
1,5,0,3,4,2,4,3,5,5,0,0,1,0,0,1,0,62,62,62,left,1,1.8435404000010749,None,,,,pil_004,001,0.9,1.0,2023-03-24_17h13.02.887,stress,2023.1.0,60.01990259971459,
0,2,5,3,1,4,4,3,0,0,6,5,1,0,0,1,0,63,63,63,left,1,1.0684906999995292,None,,,,pil_004,001,0.9,1.0,2023-03-24_17h13.02.887,stress,2023.1.0,60.01990259971459,
4,2,5,1,3,0,4,6,3,0,6,5,1,0,0,1,0,64,64,64,left,1,1.4388809999982186,None,,,,pil_004,001,0.9,1.0,2023-03-24_17h13.02.887,stress,2023.1.0,60.01990259971459,
2,4,3,0,1,5,4,3,5,6,5,6,1,1,1,1,0,65,65,65,up,1,1.3677521999998135,None,,,,pil_004,001,0.9,1.0,2023-03-24_17h13.02.887,stress,2023.1.0,60.01990259971459,
0,2,5,4,1,3,4,5,5,0,6,0,0,1,0,1,0,66,66,66,left,1,1.6978883000010683,None,,,,pil_004,001,0.9,1.0,2023-03-24_17h13.02.887,stress,2023.1.0,60.01990259971459,
3,1,0,5,4,2,4,0,6,5,5,6,1,1,0,1,0,67,67,67,left,1,2.358596000001853,None,,,,pil_004,001,0.9,1.0,2023-03-24_17h13.02.887,stress,2023.1.0,60.01990259971459,
0,1,3,5,2,4,4,3,6,0,0,3,1,0,0,1,0,68,68,68,left,1,0.8820126999999047,None,,,,pil_004,001,0.9,1.0,2023-03-24_17h13.02.887,stress,2023.1.0,60.01990259971459,
4,5,1,0,2,3,4,0,3,6,3,0,1,1,0,1,0,69,69,69,left,1,1.627850299999409,None,,,,pil_004,001,0.9,1.0,2023-03-24_17h13.02.887,stress,2023.1.0,60.01990259971459,
2,1,4,0,5,3,4,3,0,6,6,5,1,1,0,1,0,70,70,70,left,1,2.2382502000000386,None,,,,pil_004,001,0.9,1.0,2023-03-24_17h13.02.887,stress,2023.1.0,60.01990259971459,
3,2,4,5,0,1,4,5,3,0,6,5,1,1,1,1,0,71,71,71,up,1,0.915153800000553,None,,,,pil_004,001,0.9,1.0,2023-03-24_17h13.02.887,stress,2023.1.0,60.01990259971459,
5,1,3,0,2,4,4,0,5,3,6,5,1,0,0,1,0,72,72,72,left,1,1.4216535999985354,None,,,,pil_004,001,0.9,1.0,2023-03-24_17h13.02.887,stress,2023.1.0,60.01990259971459,
0,2,4,5,3,1,4,0,3,5,0,5,1,1,0,1,0,73,73,73,left,1,1.2178529999982857,None,,,,pil_004,001,0.9,1.0,2023-03-24_17h13.02.887,stress,2023.1.0,60.01990259971459,
4,3,5,0,2,1,4,3,5,5,6,0,1,0,1,1,0,74,74,74,up,1,0.952230499999132,None,,,,pil_004,001,0.9,1.0,2023-03-24_17h13.02.887,stress,2023.1.0,60.01990259971459,
3,2,0,5,4,1,4,0,3,6,5,6,1,0,0,1,0,75,75,75,left,1,1.2299128999984532,None,,,,pil_004,001,0.9,1.0,2023-03-24_17h13.02.887,stress,2023.1.0,60.01990259971459,
1,0,2,3,5,4,4,5,0,6,0,5,1,1,1,1,0,76,76,76,up,1,1.7261692000029143,None,,,,pil_004,001,0.9,1.0,2023-03-24_17h13.02.887,stress,2023.1.0,60.01990259971459,
1,0,5,4,2,3,4,3,3,0,6,5,1,0,0,1,0,77,77,77,left,1,1.0681082000010065,None,,,,pil_004,001,0.9,1.0,2023-03-24_17h13.02.887,stress,2023.1.0,60.01990259971459,
5,1,4,3,0,2,4,3,3,6,0,0,1,1,1,1,0,78,78,78,up,1,1.6483113999966008,None,,,,pil_004,001,0.9,1.0,2023-03-24_17h13.02.887,stress,2023.1.0,60.01990259971459,
5,4,3,2,1,0,4,6,3,5,0,0,1,0,0,1,0,79,79,79,left,1,1.077706299998681,space,31.044405200002075,,,pil_004,001,0.9,1.0,2023-03-24_17h13.02.887,stress,2023.1.0,60.01990259971459,
2,3,4,0,5,1,4,0,6,5,5,3,0,0,0,1,0,80,80,80,left,1,2.6615928999999596,None,,,,pil_004,001,0.9,1.0,2023-03-24_17h13.02.887,stress,2023.1.0,60.01990259971459,
1,5,3,0,2,4,4,0,3,6,0,5,1,1,0,1,0,81,81,81,left,1,0.841200700000627,None,,,,pil_004,001,0.9,1.0,2023-03-24_17h13.02.887,stress,2023.1.0,60.01990259971459,
2,1,5,4,3,0,4,0,6,5,5,6,1,1,0,1,0,82,82,82,left,1,0.6267351999995299,None,,,,pil_004,001,0.9,1.0,2023-03-24_17h13.02.887,stress,2023.1.0,60.01990259971459,
3,2,1,0,5,4,4,3,0,6,3,5,1,1,0,1,0,83,83,83,left,1,1.821721600001183,None,,,,pil_004,001,0.9,1.0,2023-03-24_17h13.02.887,stress,2023.1.0,60.01990259971459,
3,0,1,5,2,4,4,5,0,6,6,0,1,0,0,1,0,84,84,84,left,1,0.5810863000006066,None,,,,pil_004,001,0.9,1.0,2023-03-24_17h13.02.887,stress,2023.1.0,60.01990259971459,
5,2,1,0,4,3,4,0,3,6,6,0,1,0,0,1,0,85,85,85,left,1,1.799266500001977,None,,,,pil_004,001,0.9,1.0,2023-03-24_17h13.02.887,stress,2023.1.0,60.01990259971459,
0,1,5,3,4,2,4,5,0,0,6,6,1,1,0,1,0,86,86,86,left,1,1.1099140000005718,None,,,,pil_004,001,0.9,1.0,2023-03-24_17h13.02.887,stress,2023.1.0,60.01990259971459,
4,3,2,1,5,0,4,3,6,0,3,5,1,0,0,1,0,87,87,87,left,1,1.6832572999992408,None,,,,pil_004,001,0.9,1.0,2023-03-24_17h13.02.887,stress,2023.1.0,60.01990259971459,
3,0,1,5,4,2,4,5,3,0,0,3,0,0,0,1,0,88,88,88,left,1,0.6227833999982977,None,,,,pil_004,001,0.9,1.0,2023-03-24_17h13.02.887,stress,2023.1.0,60.01990259971459,
0,2,5,1,4,3,4,6,6,5,0,0,1,1,1,1,0,89,89,89,up,1,1.0867560000006051,None,,,,pil_004,001,0.9,1.0,2023-03-24_17h13.02.887,stress,2023.1.0,60.01990259971459,
4,0,1,5,3,2,4,0,0,6,5,3,0,1,0,1,0,90,90,90,left,1,0.9265011999996204,None,,,,pil_004,001,0.9,1.0,2023-03-24_17h13.02.887,stress,2023.1.0,60.01990259971459,
0,4,5,1,3,2,4,3,0,3,0,5,1,0,0,1,0,91,91,91,left,1,0.8525522999989334,None,,,,pil_004,001,0.9,1.0,2023-03-24_17h13.02.887,stress,2023.1.0,60.01990259971459,
2,4,0,1,5,3,4,3,0,6,5,0,1,1,0,1,0,92,92,92,left,1,1.08602719999908,None,,,,pil_004,001,0.9,1.0,2023-03-24_17h13.02.887,stress,2023.1.0,60.01990259971459,
4,1,0,3,2,5,4,5,0,3,6,6,1,1,0,1,0,93,93,93,left,1,1.1244998000001942,None,,,,pil_004,001,0.9,1.0,2023-03-24_17h13.02.887,stress,2023.1.0,60.01990259971459,
4,2,5,0,1,3,4,3,0,6,6,3,1,0,0,1,0,94,94,94,left,1,1.1676100000004226,None,,,,pil_004,001,0.9,1.0,2023-03-24_17h13.02.887,stress,2023.1.0,60.01990259971459,
4,3,1,2,0,5,4,5,3,3,5,6,1,0,0,1,0,95,95,95,left,1,0.717786299999716,None,,,,pil_004,001,0.9,1.0,2023-03-24_17h13.02.887,stress,2023.1.0,60.01990259971459,
3,2,4,1,0,5,4,6,3,0,6,3,1,1,1,1,0,96,96,96,up,1,1.646284200000082,None,,,,pil_004,001,0.9,1.0,2023-03-24_17h13.02.887,stress,2023.1.0,60.01990259971459,
2,0,1,3,4,5,4,0,5,0,5,3,1,1,0,1,0,97,97,97,left,1,0.7281169000016234,None,,,,pil_004,001,0.9,1.0,2023-03-24_17h13.02.887,stress,2023.1.0,60.01990259971459,
0,2,3,4,5,1,4,3,5,0,0,6,1,1,1,1,0,98,98,98,up,1,0.9192719999991823,None,,,,pil_004,001,0.9,1.0,2023-03-24_17h13.02.887,stress,2023.1.0,60.01990259971459,
5,0,3,4,2,1,4,6,6,3,3,0,1,0,1,1,0,99,99,99,up,1,1.1723329999986163,None,,,,pil_004,001,0.9,1.0,2023-03-24_17h13.02.887,stress,2023.1.0,60.01990259971459,
3,5,0,2,4,1,4,5,3,6,3,0,1,0,1,1,0,100,100,100,up,1,0.8679646999989927,None,,,,pil_004,001,0.9,1.0,2023-03-24_17h13.02.887,stress,2023.1.0,60.01990259971459,
1,2,5,4,3,0,4,5,3,0,5,3,0,1,0,1,0,101,101,101,left,1,1.712079699998867,None,,,,pil_004,001,0.9,1.0,2023-03-24_17h13.02.887,stress,2023.1.0,60.01990259971459,
1,2,3,0,5,4,4,5,3,0,0,6,1,1,0,1,0,102,102,102,left,1,1.006008299998939,None,,,,pil_004,001,0.9,1.0,2023-03-24_17h13.02.887,stress,2023.1.0,60.01990259971459,
3,5,2,4,0,1,4,5,0,6,3,6,1,1,0,1,0,103,103,103,left,1,0.9333365000020422,None,,,,pil_004,001,0.9,1.0,2023-03-24_17h13.02.887,stress,2023.1.0,60.01990259971459,
5,1,4,0,3,2,4,3,0,0,6,5,1,1,1,1,0,104,104,104,up,1,1.673749300000054,None,,,,pil_004,001,0.9,1.0,2023-03-24_17h13.02.887,stress,2023.1.0,60.01990259971459,
2,1,0,5,4,3,4,0,3,5,6,5,1,1,1,1,0,105,105,105,up,1,0.7390679000018281,None,,,,pil_004,001,0.9,1.0,2023-03-24_17h13.02.887,stress,2023.1.0,60.01990259971459,
2,5,3,0,1,4,4,5,0,3,6,5,1,0,0,1,0,106,106,106,left,1,0.5788929000009375,None,,,,pil_004,001,0.9,1.0,2023-03-24_17h13.02.887,stress,2023.1.0,60.01990259971459,
3,4,0,5,2,1,4,5,0,3,5,6,1,1,1,1,0,107,107,107,up,1,0.8576936999997997,None,,,,pil_004,001,0.9,1.0,2023-03-24_17h13.02.887,stress,2023.1.0,60.01990259971459,
1,3,0,5,4,2,4,0,3,6,0,5,1,1,0,1,0,108,108,108,left,1,1.7103840999989188,None,,,,pil_004,001,0.9,1.0,2023-03-24_17h13.02.887,stress,2023.1.0,60.01990259971459,
2,3,5,0,1,4,4,0,3,5,3,5,1,1,1,1,0,109,109,109,up,1,1.246584199998324,None,,,,pil_004,001,0.9,1.0,2023-03-24_17h13.02.887,stress,2023.1.0,60.01990259971459,
1,0,3,4,5,2,4,3,0,3,5,0,1,0,1,1,0,110,110,110,up,1,1.648027399998682,None,,,,pil_004,001,0.9,1.0,2023-03-24_17h13.02.887,stress,2023.1.0,60.01990259971459,
5,1,2,4,0,3,4,3,0,0,5,3,1,1,1,1,0,111,111,111,up,1,1.1408015999986674,None,,,,pil_004,001,0.9,1.0,2023-03-24_17h13.02.887,stress,2023.1.0,60.01990259971459,
2,4,1,5,0,3,4,6,5,3,0,0,1,0,1,1,0,112,112,112,up,1,1.262535999998363,None,,,,pil_004,001,0.9,1.0,2023-03-24_17h13.02.887,stress,2023.1.0,60.01990259971459,
1,5,4,3,2,0,4,6,0,5,3,0,1,1,0,1,0,113,113,113,left,1,1.4722761000011815,None,,,,pil_004,001,0.9,1.0,2023-03-24_17h13.02.887,stress,2023.1.0,60.01990259971459,
0,3,2,4,1,5,4,6,0,3,3,5,1,0,1,1,0,114,114,114,up,1,1.3123048000015842,None,,,,pil_004,001,0.9,1.0,2023-03-24_17h13.02.887,stress,2023.1.0,60.01990259971459,
2,1,5,0,3,4,4,0,6,3,6,5,0,0,1,1,0,115,115,115,up,1,0.8006038999992597,None,,,,pil_004,001,0.9,1.0,2023-03-24_17h13.02.887,stress,2023.1.0,60.01990259971459,
3,1,5,4,2,0,4,6,0,5,5,3,1,1,1,1,0,116,116,116,up,1,0.8960813999983657,None,,,,pil_004,001,0.9,1.0,2023-03-24_17h13.02.887,stress,2023.1.0,60.01990259971459,
0,2,5,3,1,4,4,6,5,0,3,5,1,1,0,1,0,117,117,117,left,1,1.27977810000084,None,,,,pil_004,001,0.9,1.0,2023-03-24_17h13.02.887,stress,2023.1.0,60.01990259971459,
3,2,1,0,4,5,4,0,6,5,6,3,1,1,0,1,0,118,118,118,left,1,1.2990204999987327,None,,,,pil_004,001,0.9,1.0,2023-03-24_17h13.02.887,stress,2023.1.0,60.01990259971459,
2,1,3,4,0,5,4,5,3,0,0,6,1,1,0,1,0,119,119,119,left,1,1.2911340999999084,space,14.653082100001484,,,pil_004,001,0.9,1.0,2023-03-24_17h13.02.887,stress,2023.1.0,60.01990259971459,
5,4,2,0,3,1,4,3,6,0,0,5,1,1,0,1,0,120,120,120,left,1,0.928511800000706,None,,,,pil_004,001,0.9,1.0,2023-03-24_17h13.02.887,stress,2023.1.0,60.01990259971459,
4,5,3,1,2,0,4,6,0,0,3,3,1,1,0,1,0,121,121,121,left,1,1.4579204000001482,None,,,,pil_004,001,0.9,1.0,2023-03-24_17h13.02.887,stress,2023.1.0,60.01990259971459,
0,3,2,4,1,5,4,3,3,6,6,5,1,1,1,1,0,122,122,122,up,1,1.381145800001832,None,,,,pil_004,001,0.9,1.0,2023-03-24_17h13.02.887,stress,2023.1.0,60.01990259971459,
4,2,3,1,5,0,4,5,0,5,3,6,1,0,0,1,0,123,123,123,left,1,1.0740643000026466,None,,,,pil_004,001,0.9,1.0,2023-03-24_17h13.02.887,stress,2023.1.0,60.01990259971459,
0,1,5,3,2,4,4,6,3,0,5,6,1,0,1,1,0,124,124,124,up,1,0.9962298999998893,None,,,,pil_004,001,0.9,1.0,2023-03-24_17h13.02.887,stress,2023.1.0,60.01990259971459,
3,0,4,2,5,1,4,0,0,5,5,6,1,0,0,1,0,125,125,125,left,1,1.1351040000008652,None,,,,pil_004,001,0.9,1.0,2023-03-24_17h13.02.887,stress,2023.1.0,60.01990259971459,
4,5,2,0,1,3,4,0,0,3,6,3,1,1,0,1,0,126,126,126,left,1,0.885545799999818,None,,,,pil_004,001,0.9,1.0,2023-03-24_17h13.02.887,stress,2023.1.0,60.01990259971459,
5,3,4,0,1,2,4,5,3,0,3,6,1,0,0,1,0,127,127,127,left,1,1.7638561999992817,None,,,,pil_004,001,0.9,1.0,2023-03-24_17h13.02.887,stress,2023.1.0,60.01990259971459,
0,3,2,4,1,5,4,3,5,3,6,6,1,0,1,1,0,128,128,128,up,1,1.3414655000015046,None,,,,pil_004,001,0.9,1.0,2023-03-24_17h13.02.887,stress,2023.1.0,60.01990259971459,
1,4,0,5,3,2,4,3,6,3,5,6,1,0,0,1,0,129,129,129,left,1,1.6072762000003422,None,,,,pil_004,001,0.9,1.0,2023-03-24_17h13.02.887,stress,2023.1.0,60.01990259971459,
1,4,0,5,3,2,4,6,5,3,3,0,1,0,1,1,0,130,130,130,up,1,0.8057931000003009,None,,,,pil_004,001,0.9,1.0,2023-03-24_17h13.02.887,stress,2023.1.0,60.01990259971459,
3,1,0,5,2,4,4,3,3,0,6,5,0,1,1,1,0,131,131,131,up,1,1.1885853999992833,None,,,,pil_004,001,0.9,1.0,2023-03-24_17h13.02.887,stress,2023.1.0,60.01990259971459,
2,4,1,5,3,0,4,0,6,5,0,6,1,0,0,1,0,132,132,132,left,1,0.7478551999993215,None,,,,pil_004,001,0.9,1.0,2023-03-24_17h13.02.887,stress,2023.1.0,60.01990259971459,
2,5,0,3,1,4,4,6,3,0,0,3,1,1,0,1,0,133,133,133,left,1,0.6064860000005865,None,,,,pil_004,001,0.9,1.0,2023-03-24_17h13.02.887,stress,2023.1.0,60.01990259971459,
3,5,4,0,2,1,4,5,0,6,0,6,1,0,1,1,0,134,134,134,up,1,0.8393546000006609,None,,,,pil_004,001,0.9,1.0,2023-03-24_17h13.02.887,stress,2023.1.0,60.01990259971459,
5,4,0,1,3,2,4,5,0,3,5,6,1,0,1,1,0,135,135,135,up,1,1.8521083999985422,None,,,,pil_004,001,0.9,1.0,2023-03-24_17h13.02.887,stress,2023.1.0,60.01990259971459,
0,1,5,3,2,4,4,5,6,3,0,5,1,1,0,1,0,136,136,136,left,1,1.1778601000005438,None,,,,pil_004,001,0.9,1.0,2023-03-24_17h13.02.887,stress,2023.1.0,60.01990259971459,
3,5,2,1,4,0,4,6,5,6,0,0,1,0,0,1,0,137,137,137,left,1,1.0560712999977113,None,,,,pil_004,001,0.9,1.0,2023-03-24_17h13.02.887,stress,2023.1.0,60.01990259971459,
0,1,2,4,5,3,4,0,3,6,5,5,0,0,1,1,0,138,138,138,up,1,1.2434159999975236,None,,,,pil_004,001,0.9,1.0,2023-03-24_17h13.02.887,stress,2023.1.0,60.01990259971459,
3,1,0,5,4,2,4,6,0,0,5,3,1,0,1,1,0,139,139,139,up,1,0.9471526999986963,None,,,,pil_004,001,0.9,1.0,2023-03-24_17h13.02.887,stress,2023.1.0,60.01990259971459,
2,4,0,5,3,1,4,6,0,3,6,5,1,1,0,1,0,140,140,140,left,1,1.2249646999989636,None,,,,pil_004,001,0.9,1.0,2023-03-24_17h13.02.887,stress,2023.1.0,60.01990259971459,
1,2,5,3,4,0,4,5,0,5,6,0,1,1,0,1,0,141,141,141,left,1,1.3612966000000597,None,,,,pil_004,001,0.9,1.0,2023-03-24_17h13.02.887,stress,2023.1.0,60.01990259971459,
0,3,2,4,1,5,4,6,3,6,0,3,0,0,0,1,0,142,142,142,left,1,0.88122999999905,None,,,,pil_004,001,0.9,1.0,2023-03-24_17h13.02.887,stress,2023.1.0,60.01990259971459,
4,0,1,2,3,5,4,3,6,6,0,5,1,1,1,1,0,143,143,143,up,1,0.7979054999996151,None,,,,pil_004,001,0.9,1.0,2023-03-24_17h13.02.887,stress,2023.1.0,60.01990259971459,
1,3,5,4,0,2,4,6,0,6,5,3,1,0,0,1,0,144,144,144,left,1,1.3386000999998942,None,,,,pil_004,001,0.9,1.0,2023-03-24_17h13.02.887,stress,2023.1.0,60.01990259971459,
4,1,0,3,5,2,4,0,0,6,5,3,0,0,1,1,0,145,145,145,up,1,0.920692899999267,None,,,,pil_004,001,0.9,1.0,2023-03-24_17h13.02.887,stress,2023.1.0,60.01990259971459,
5,3,2,1,0,4,4,5,6,5,0,3,1,0,1,1,0,146,146,146,up,1,1.3993007999997644,None,,,,pil_004,001,0.9,1.0,2023-03-24_17h13.02.887,stress,2023.1.0,60.01990259971459,
3,2,4,1,5,0,4,0,3,3,5,0,1,0,1,1,0,147,147,147,up,1,0.6456400999995822,None,,,,pil_004,001,0.9,1.0,2023-03-24_17h13.02.887,stress,2023.1.0,60.01990259971459,
5,1,4,2,0,3,4,5,3,5,3,6,1,1,0,1,0,148,148,148,left,1,1.7364933999997447,None,,,,pil_004,001,0.9,1.0,2023-03-24_17h13.02.887,stress,2023.1.0,60.01990259971459,
0,3,2,1,5,4,4,6,3,3,5,6,1,1,1,1,0,149,149,149,up,1,1.350760999997874,None,,,,pil_004,001,0.9,1.0,2023-03-24_17h13.02.887,stress,2023.1.0,60.01990259971459,
4,5,3,1,0,2,4,0,3,5,5,0,1,0,1,1,0,150,150,150,up,1,0.875768900001276,None,,,,pil_004,001,0.9,1.0,2023-03-24_17h13.02.887,stress,2023.1.0,60.01990259971459,
3,4,2,5,1,0,4,5,3,5,0,6,1,1,0,1,0,151,151,151,left,1,0.5815016000015021,None,,,,pil_004,001,0.9,1.0,2023-03-24_17h13.02.887,stress,2023.1.0,60.01990259971459,
3,5,1,0,4,2,4,0,0,6,3,3,1,1,1,1,0,152,152,152,up,1,0.5118366999995487,None,,,,pil_004,001,0.9,1.0,2023-03-24_17h13.02.887,stress,2023.1.0,60.01990259971459,
4,1,0,5,2,3,4,5,5,0,6,6,1,1,0,1,0,153,153,153,left,1,0.8246126999983971,None,,,,pil_004,001,0.9,1.0,2023-03-24_17h13.02.887,stress,2023.1.0,60.01990259971459,
0,2,1,4,3,5,4,0,5,5,6,6,1,1,0,1,0,154,154,154,left,1,1.6333257000005688,None,,,,pil_004,001,0.9,1.0,2023-03-24_17h13.02.887,stress,2023.1.0,60.01990259971459,
0,5,2,4,1,3,4,0,5,6,6,3,1,0,0,1,0,155,155,155,left,1,0.8313338999978441,None,,,,pil_004,001,0.9,1.0,2023-03-24_17h13.02.887,stress,2023.1.0,60.01990259971459,
5,0,3,1,2,4,4,0,6,6,5,3,0,0,0,1,0,156,156,156,left,1,0.7961481000020285,None,,,,pil_004,001,0.9,1.0,2023-03-24_17h13.02.887,stress,2023.1.0,60.01990259971459,
1,4,2,5,0,3,4,3,6,0,6,0,0,1,1,1,0,157,157,157,up,1,0.8932045000001381,None,,,,pil_004,001,0.9,1.0,2023-03-24_17h13.02.887,stress,2023.1.0,60.01990259971459,
5,2,1,4,0,3,4,5,0,6,5,3,1,0,0,1,0,158,158,158,left,1,1.4330926999973599,None,,,,pil_004,001,0.9,1.0,2023-03-24_17h13.02.887,stress,2023.1.0,60.01990259971459,
0,5,3,4,1,2,4,5,5,6,0,6,1,1,0,1,0,159,159,159,left,1,0.8999261999997543,space,1.5764254999994591,,,pil_004,001,0.9,1.0,2023-03-24_17h13.02.887,stress,2023.1.0,60.01990259971459,
0,4,3,5,1,2,4,3,6,3,6,0,1,0,0,1,0,160,160,160,left,1,1.1214882999993279,None,,,,pil_004,001,0.9,1.0,2023-03-24_17h13.02.887,stress,2023.1.0,60.01990259971459,
2,5,4,3,1,0,4,5,5,3,0,6,1,0,0,1,0,161,161,161,left,1,0.941081299999496,None,,,,pil_004,001,0.9,1.0,2023-03-24_17h13.02.887,stress,2023.1.0,60.01990259971459,
2,1,5,4,0,3,4,0,6,5,5,3,1,0,1,1,0,162,162,162,up,1,0.7592212000017753,None,,,,pil_004,001,0.9,1.0,2023-03-24_17h13.02.887,stress,2023.1.0,60.01990259971459,
5,0,3,1,4,2,4,5,3,5,6,3,1,0,1,1,0,163,163,163,up,1,1.5063446999993175,None,,,,pil_004,001,0.9,1.0,2023-03-24_17h13.02.887,stress,2023.1.0,60.01990259971459,
5,2,0,1,3,4,4,5,3,3,5,6,1,0,1,1,0,164,164,164,up,1,1.3804894999993849,None,,,,pil_004,001,0.9,1.0,2023-03-24_17h13.02.887,stress,2023.1.0,60.01990259971459,
4,5,0,2,3,1,4,3,5,3,0,5,1,0,0,1,0,165,165,165,left,1,1.540365999997448,None,,,,pil_004,001,0.9,1.0,2023-03-24_17h13.02.887,stress,2023.1.0,60.01990259971459,
1,0,4,2,3,5,4,0,6,6,3,3,1,0,0,1,0,166,166,166,left,1,1.2380875000017113,None,,,,pil_004,001,0.9,1.0,2023-03-24_17h13.02.887,stress,2023.1.0,60.01990259971459,
5,0,4,1,2,3,4,3,0,6,5,5,1,0,0,1,0,167,167,167,left,1,1.6537088999975822,None,,,,pil_004,001,0.9,1.0,2023-03-24_17h13.02.887,stress,2023.1.0,60.01990259971459,
0,1,5,2,3,4,4,0,5,3,3,6,1,0,0,1,0,168,168,168,left,1,1.2988686999997299,None,,,,pil_004,001,0.9,1.0,2023-03-24_17h13.02.887,stress,2023.1.0,60.01990259971459,
5,0,2,4,3,1,4,5,3,5,6,3,1,0,1,1,0,169,169,169,up,1,1.2950974999985192,None,,,,pil_004,001,0.9,1.0,2023-03-24_17h13.02.887,stress,2023.1.0,60.01990259971459,
1,3,5,4,2,0,4,6,0,6,5,3,1,0,0,1,0,170,170,170,left,1,1.0091524999988906,None,,,,pil_004,001,0.9,1.0,2023-03-24_17h13.02.887,stress,2023.1.0,60.01990259971459,
4,5,3,1,0,2,4,0,3,5,5,3,1,1,0,1,0,171,171,171,left,1,1.9987904000008712,None,,,,pil_004,001,0.9,1.0,2023-03-24_17h13.02.887,stress,2023.1.0,60.01990259971459,
2,3,1,5,0,4,4,3,0,6,5,0,1,0,1,1,0,172,172,172,up,1,0.9368811000022106,None,,,,pil_004,001,0.9,1.0,2023-03-24_17h13.02.887,stress,2023.1.0,60.01990259971459,
5,0,1,4,2,3,4,3,6,0,0,6,1,1,0,1,0,173,173,173,left,1,1.6056410000019241,None,,,,pil_004,001,0.9,1.0,2023-03-24_17h13.02.887,stress,2023.1.0,60.01990259971459,
4,3,0,1,5,2,4,6,0,0,5,3,1,1,1,1,0,174,174,174,up,1,1.0804348000019672,None,,,,pil_004,001,0.9,1.0,2023-03-24_17h13.02.887,stress,2023.1.0,60.01990259971459,
0,4,1,3,5,2,4,6,0,3,3,6,1,1,1,1,0,175,175,175,up,1,1.6925505999970483,None,,,,pil_004,001,0.9,1.0,2023-03-24_17h13.02.887,stress,2023.1.0,60.01990259971459,
4,0,1,5,2,3,4,0,5,5,6,3,1,0,0,1,0,176,176,176,left,1,1.5749388000003819,None,,,,pil_004,001,0.9,1.0,2023-03-24_17h13.02.887,stress,2023.1.0,60.01990259971459,
2,4,3,1,5,0,4,6,6,5,0,5,1,0,1,1,0,177,177,177,up,1,2.4736628999999084,None,,,,pil_004,001,0.9,1.0,2023-03-24_17h13.02.887,stress,2023.1.0,60.01990259971459,
4,3,0,1,5,2,4,5,6,0,5,0,1,1,0,1,0,178,178,178,left,1,1.0738540999991528,None,,,,pil_004,001,0.9,1.0,2023-03-24_17h13.02.887,stress,2023.1.0,60.01990259971459,
3,0,5,1,4,2,4,6,5,5,6,3,0,0,1,1,0,179,179,179,up,1,0.9161023999986355,None,,,,pil_004,001,0.9,1.0,2023-03-24_17h13.02.887,stress,2023.1.0,60.01990259971459,
0,4,2,1,3,5,4,5,5,6,6,3,1,1,1,1,0,180,180,180,up,1,1.6140532999997959,None,,,,pil_004,001,0.9,1.0,2023-03-24_17h13.02.887,stress,2023.1.0,60.01990259971459,
0,5,4,1,2,3,4,6,6,3,5,0,1,0,0,1,0,181,181,181,left,1,0.7950665999997,None,,,,pil_004,001,0.9,1.0,2023-03-24_17h13.02.887,stress,2023.1.0,60.01990259971459,
2,0,1,5,3,4,4,3,6,3,6,0,1,0,0,1,0,182,182,182,left,1,2.4365262999999686,None,,,,pil_004,001,0.9,1.0,2023-03-24_17h13.02.887,stress,2023.1.0,60.01990259971459,
3,2,5,4,1,0,4,6,5,3,5,3,1,0,0,1,0,183,183,183,left,1,0.8157169000005524,None,,,,pil_004,001,0.9,1.0,2023-03-24_17h13.02.887,stress,2023.1.0,60.01990259971459,
4,2,1,5,0,3,4,3,6,0,6,0,1,1,1,1,0,184,184,184,up,1,1.4679785000007541,None,,,,pil_004,001,0.9,1.0,2023-03-24_17h13.02.887,stress,2023.1.0,60.01990259971459,
5,2,0,3,1,4,4,0,6,0,3,5,1,0,1,1,0,185,185,185,up,1,1.2523677999997744,None,,,,pil_004,001,0.9,1.0,2023-03-24_17h13.02.887,stress,2023.1.0,60.01990259971459,
5,1,2,0,4,3,4,3,6,3,0,6,1,1,1,1,0,186,186,186,up,1,0.6385566999997536,None,,,,pil_004,001,0.9,1.0,2023-03-24_17h13.02.887,stress,2023.1.0,60.01990259971459,
1,0,5,4,2,3,4,0,0,3,5,3,1,1,0,1,0,187,187,187,left,1,1.3530926999992516,None,,,,pil_004,001,0.9,1.0,2023-03-24_17h13.02.887,stress,2023.1.0,60.01990259971459,
2,3,1,0,4,5,4,5,6,0,0,3,1,0,1,1,0,188,188,188,up,1,1.1540452999979607,None,,,,pil_004,001,0.9,1.0,2023-03-24_17h13.02.887,stress,2023.1.0,60.01990259971459,
2,5,1,3,0,4,4,6,5,0,0,6,1,1,0,1,0,189,189,189,left,1,1.1531852000007348,None,,,,pil_004,001,0.9,1.0,2023-03-24_17h13.02.887,stress,2023.1.0,60.01990259971459,
4,2,5,1,0,3,4,3,6,0,5,3,1,0,1,1,0,190,190,190,up,1,1.0013426000004984,None,,,,pil_004,001,0.9,1.0,2023-03-24_17h13.02.887,stress,2023.1.0,60.01990259971459,
4,1,0,3,5,2,4,3,5,5,6,0,1,1,1,1,0,191,191,191,up,1,0.8761855999982799,None,,,,pil_004,001,0.9,1.0,2023-03-24_17h13.02.887,stress,2023.1.0,60.01990259971459,
0,1,5,2,4,3,4,6,6,0,3,5,1,0,0,1,0,192,192,192,left,1,1.1569493999995757,None,,,,pil_004,001,0.9,1.0,2023-03-24_17h13.02.887,stress,2023.1.0,60.01990259971459,
5,1,2,3,4,0,4,5,3,3,0,6,1,0,1,1,0,193,193,193,up,1,1.3114064000001235,None,,,,pil_004,001,0.9,1.0,2023-03-24_17h13.02.887,stress,2023.1.0,60.01990259971459,
4,0,1,3,2,5,4,5,0,5,6,3,1,1,0,1,0,194,194,194,left,1,1.1903287999994063,None,,,,pil_004,001,0.9,1.0,2023-03-24_17h13.02.887,stress,2023.1.0,60.01990259971459,
1,4,2,3,5,0,4,6,0,6,0,3,0,0,0,1,0,195,195,195,left,1,0.8863200000014331,None,,,,pil_004,001,0.9,1.0,2023-03-24_17h13.02.887,stress,2023.1.0,60.01990259971459,
5,3,2,4,1,0,4,0,6,3,0,5,1,1,1,1,0,196,196,196,up,1,1.0314743999988423,None,,,,pil_004,001,0.9,1.0,2023-03-24_17h13.02.887,stress,2023.1.0,60.01990259971459,
5,2,1,4,3,0,4,5,3,6,0,0,0,0,0,1,0,197,197,197,left,1,1.4823465999979817,None,,,,pil_004,001,0.9,1.0,2023-03-24_17h13.02.887,stress,2023.1.0,60.01990259971459,
5,4,2,1,0,3,4,0,6,6,3,3,1,1,1,1,0,198,198,198,up,1,1.165557300002547,None,,,,pil_004,001,0.9,1.0,2023-03-24_17h13.02.887,stress,2023.1.0,60.01990259971459,
1,3,0,2,4,5,4,6,5,6,0,0,1,0,0,1,0,199,199,199,left,1,0.9769578000014008,space,3.0209549000028346,,,pil_004,001,0.9,1.0,2023-03-24_17h13.02.887,stress,2023.1.0,60.01990259971459,
1,5,0,4,3,2,4,6,5,5,6,0,1,0,1,1,0,200,200,200,up,1,2.3906276999987313,None,,,,pil_004,001,0.9,1.0,2023-03-24_17h13.02.887,stress,2023.1.0,60.01990259971459,
1,2,4,5,0,3,4,0,6,6,5,3,1,1,1,1,0,201,201,201,up,1,1.2433510999981081,None,,,,pil_004,001,0.9,1.0,2023-03-24_17h13.02.887,stress,2023.1.0,60.01990259971459,
0,1,5,4,3,2,4,0,0,5,6,3,1,1,0,1,0,202,202,202,left,1,0.8242428999983531,None,,,,pil_004,001,0.9,1.0,2023-03-24_17h13.02.887,stress,2023.1.0,60.01990259971459,
2,0,1,4,3,5,4,3,5,6,6,0,0,0,0,1,0,203,203,203,up,0,0.9729708000013488,None,,,,pil_004,001,0.9,1.0,2023-03-24_17h13.02.887,stress,2023.1.0,60.01990259971459,
5,3,1,4,2,0,4,6,3,5,5,6,1,1,1,1,0,204,204,204,up,1,1.6739989000016067,None,,,,pil_004,001,0.9,1.0,2023-03-24_17h13.02.887,stress,2023.1.0,60.01990259971459,
4,3,0,1,2,5,4,3,6,6,0,3,1,1,0,1,0,205,205,205,left,1,1.575360199996794,None,,,,pil_004,001,0.9,1.0,2023-03-24_17h13.02.887,stress,2023.1.0,60.01990259971459,
0,2,4,1,3,5,4,5,3,0,3,6,1,1,1,1,0,206,206,206,up,1,1.3550159000005806,None,,,,pil_004,001,0.9,1.0,2023-03-24_17h13.02.887,stress,2023.1.0,60.01990259971459,
2,5,0,4,3,1,4,3,0,3,0,5,1,1,0,1,0,207,207,207,left,1,0.7475281000006362,None,,,,pil_004,001,0.9,1.0,2023-03-24_17h13.02.887,stress,2023.1.0,60.01990259971459,
3,2,1,4,5,0,4,6,0,5,0,5,1,0,0,1,0,208,208,208,left,1,0.9633444999999483,None,,,,pil_004,001,0.9,1.0,2023-03-24_17h13.02.887,stress,2023.1.0,60.01990259971459,
0,1,2,3,4,5,4,0,6,3,3,5,1,1,1,1,0,209,209,209,up,1,0.9814667999999074,None,,,,pil_004,001,0.9,1.0,2023-03-24_17h13.02.887,stress,2023.1.0,60.01990259971459,
0,5,3,4,2,1,4,0,5,0,6,3,1,1,0,1,0,210,210,210,left,1,0.6665235000000393,None,,,,pil_004,001,0.9,1.0,2023-03-24_17h13.02.887,stress,2023.1.0,60.01990259971459,
3,2,5,1,0,4,4,0,3,3,6,0,1,0,1,1,0,211,211,211,up,1,1.2482168999995338,None,,,,pil_004,001,0.9,1.0,2023-03-24_17h13.02.887,stress,2023.1.0,60.01990259971459,
1,0,2,5,4,3,4,3,0,6,3,5,1,0,0,1,0,212,212,212,left,1,0.9406896000000415,None,,,,pil_004,001,0.9,1.0,2023-03-24_17h13.02.887,stress,2023.1.0,60.01990259971459,
5,0,1,3,2,4,4,3,6,3,5,0,0,0,1,1,0,213,213,213,up,1,1.5395577999988745,None,,,,pil_004,001,0.9,1.0,2023-03-24_17h13.02.887,stress,2023.1.0,60.01990259971459,
0,3,5,4,2,1,4,5,3,5,6,0,1,1,0,1,0,214,214,214,left,1,1.0137328999990132,None,,,,pil_004,001,0.9,1.0,2023-03-24_17h13.02.887,stress,2023.1.0,60.01990259971459,
3,4,2,5,0,1,4,5,3,3,5,0,1,1,1,1,0,215,215,215,up,1,1.5364522999989276,None,,,,pil_004,001,0.9,1.0,2023-03-24_17h13.02.887,stress,2023.1.0,60.01990259971459,
1,3,4,2,5,0,4,0,6,3,5,3,1,0,1,1,0,216,216,216,up,1,1.0218845999988844,None,,,,pil_004,001,0.9,1.0,2023-03-24_17h13.02.887,stress,2023.1.0,60.01990259971459,
5,3,0,4,2,1,4,6,3,0,3,0,1,0,1,1,0,217,217,217,up,1,1.309068099999422,None,,,,pil_004,001,0.9,1.0,2023-03-24_17h13.02.887,stress,2023.1.0,60.01990259971459,
3,0,4,1,2,5,4,5,5,3,0,3,1,1,1,1,0,218,218,218,up,1,1.0615832000003138,None,,,,pil_004,001,0.9,1.0,2023-03-24_17h13.02.887,stress,2023.1.0,60.01990259971459,
2,0,4,3,5,1,4,3,6,0,0,6,0,1,0,1,0,219,219,219,up,0,0.9542710000023362,None,,,,pil_004,001,0.9,1.0,2023-03-24_17h13.02.887,stress,2023.1.0,60.01990259971459,
0,1,4,2,5,3,4,0,5,6,5,6,1,1,1,1,0,220,220,220,up,1,1.4377335000026505,None,,,,pil_004,001,0.9,1.0,2023-03-24_17h13.02.887,stress,2023.1.0,60.01990259971459,
5,4,3,2,0,1,4,6,3,0,3,5,1,0,1,1,0,221,221,221,up,1,1.8603736000004574,None,,,,pil_004,001,0.9,1.0,2023-03-24_17h13.02.887,stress,2023.1.0,60.01990259971459,
4,2,5,3,1,0,4,5,5,0,6,6,1,0,0,1,0,222,222,222,left,1,1.3993866999990132,None,,,,pil_004,001,0.9,1.0,2023-03-24_17h13.02.887,stress,2023.1.0,60.01990259971459,
5,4,1,2,0,3,4,5,3,5,0,3,0,1,1,1,0,223,223,223,up,1,1.574728800002049,None,,,,pil_004,001,0.9,1.0,2023-03-24_17h13.02.887,stress,2023.1.0,60.01990259971459,
2,5,0,3,4,1,4,3,0,5,5,6,1,1,0,1,0,224,224,224,left,1,1.4040625000016007,None,,,,pil_004,001,0.9,1.0,2023-03-24_17h13.02.887,stress,2023.1.0,60.01990259971459,
0,2,1,3,4,5,4,3,6,0,0,3,1,0,0,1,0,225,225,225,left,1,1.4023101000020688,None,,,,pil_004,001,0.9,1.0,2023-03-24_17h13.02.887,stress,2023.1.0,60.01990259971459,
5,1,2,3,0,4,4,3,6,6,5,5,1,0,1,1,0,226,226,226,up,1,1.4564093000008143,None,,,,pil_004,001,0.9,1.0,2023-03-24_17h13.02.887,stress,2023.1.0,60.01990259971459,
4,5,0,3,1,2,4,3,6,0,3,0,1,0,1,1,0,227,227,227,up,1,1.948585299996921,None,,,,pil_004,001,0.9,1.0,2023-03-24_17h13.02.887,stress,2023.1.0,60.01990259971459,
3,2,5,0,1,4,4,5,5,6,0,0,1,0,0,1,0,228,228,228,left,1,1.5705159999997704,None,,,,pil_004,001,0.9,1.0,2023-03-24_17h13.02.887,stress,2023.1.0,60.01990259971459,
0,2,5,4,1,3,4,6,5,3,3,5,1,0,0,1,0,229,229,229,left,1,1.3104708999999275,None,,,,pil_004,001,0.9,1.0,2023-03-24_17h13.02.887,stress,2023.1.0,60.01990259971459,
2,5,0,1,4,3,4,6,0,3,0,5,1,1,1,1,0,230,230,230,up,1,1.0066134000007878,None,,,,pil_004,001,0.9,1.0,2023-03-24_17h13.02.887,stress,2023.1.0,60.01990259971459,
1,4,2,5,0,3,4,6,0,6,0,3,0,0,1,1,0,231,231,231,up,1,0.9572445000012522,None,,,,pil_004,001,0.9,1.0,2023-03-24_17h13.02.887,stress,2023.1.0,60.01990259971459,
0,1,3,4,2,5,4,3,3,5,5,0,1,0,0,1,0,232,232,232,left,1,0.8985181999996712,None,,,,pil_004,001,0.9,1.0,2023-03-24_17h13.02.887,stress,2023.1.0,60.01990259971459,
2,5,1,3,4,0,4,6,3,6,5,3,1,1,0,1,0,233,233,233,left,1,1.7918624000012642,None,,,,pil_004,001,0.9,1.0,2023-03-24_17h13.02.887,stress,2023.1.0,60.01990259971459,
4,5,1,3,2,0,4,6,6,0,3,3,1,0,0,1,0,234,234,234,left,1,2.0149146000003384,None,,,,pil_004,001,0.9,1.0,2023-03-24_17h13.02.887,stress,2023.1.0,60.01990259971459,
1,3,4,0,2,5,4,6,0,5,0,3,1,0,1,1,0,235,235,235,up,1,1.6076020000000426,None,,,,pil_004,001,0.9,1.0,2023-03-24_17h13.02.887,stress,2023.1.0,60.01990259971459,
1,5,3,4,2,0,4,6,3,5,0,5,1,1,0,1,0,236,236,236,left,1,0.6557436000002781,None,,,,pil_004,001,0.9,1.0,2023-03-24_17h13.02.887,stress,2023.1.0,60.01990259971459,
4,0,1,2,3,5,4,3,5,5,3,0,1,0,0,1,0,237,237,237,left,1,1.6418670000020938,None,,,,pil_004,001,0.9,1.0,2023-03-24_17h13.02.887,stress,2023.1.0,60.01990259971459,
4,2,5,3,1,0,4,5,3,0,6,0,1,0,1,1,0,238,238,238,up,1,1.264751199996681,None,,,,pil_004,001,0.9,1.0,2023-03-24_17h13.02.887,stress,2023.1.0,60.01990259971459,
2,3,5,0,1,4,4,0,0,5,6,3,1,0,1,1,0,239,239,239,up,1,1.148651499999687,space,2.036968100001104,,,pil_004,001,0.9,1.0,2023-03-24_17h13.02.887,stress,2023.1.0,60.01990259971459,
0,4,2,3,1,5,4,5,6,0,0,6,1,1,0,1,0,240,240,240,left,1,1.220527999998012,None,,,,pil_004,001,0.9,1.0,2023-03-24_17h13.02.887,stress,2023.1.0,60.01990259971459,
4,5,0,2,3,1,4,5,6,3,0,0,1,0,1,1,0,241,241,241,up,1,1.5050525000006019,None,,,,pil_004,001,0.9,1.0,2023-03-24_17h13.02.887,stress,2023.1.0,60.01990259971459,
0,1,4,3,5,2,4,0,0,3,6,5,1,1,0,1,0,242,242,242,left,1,1.0296478999989631,None,,,,pil_004,001,0.9,1.0,2023-03-24_17h13.02.887,stress,2023.1.0,60.01990259971459,
5,2,4,0,3,1,4,3,6,5,0,3,0,1,0,1,0,243,243,243,left,1,1.2564045000035549,None,,,,pil_004,001,0.9,1.0,2023-03-24_17h13.02.887,stress,2023.1.0,60.01990259971459,
5,2,1,4,0,3,4,0,0,5,5,6,1,1,0,1,0,244,244,244,left,1,1.4117545999979484,None,,,,pil_004,001,0.9,1.0,2023-03-24_17h13.02.887,stress,2023.1.0,60.01990259971459,
2,1,0,3,5,4,4,0,6,5,0,6,1,1,1,1,0,245,245,245,up,1,0.9696714999990945,None,,,,pil_004,001,0.9,1.0,2023-03-24_17h13.02.887,stress,2023.1.0,60.01990259971459,
1,0,2,3,5,4,4,5,5,0,3,3,1,0,1,1,0,246,246,246,up,1,0.9747654999991937,None,,,,pil_004,001,0.9,1.0,2023-03-24_17h13.02.887,stress,2023.1.0,60.01990259971459,
5,2,3,0,1,4,4,6,3,5,0,6,1,0,0,1,0,247,247,247,left,1,1.918549299996812,None,,,,pil_004,001,0.9,1.0,2023-03-24_17h13.02.887,stress,2023.1.0,60.01990259971459,
0,3,5,1,2,4,4,6,3,0,5,6,1,0,0,1,0,248,248,248,left,1,1.3877828000004229,None,,,,pil_004,001,0.9,1.0,2023-03-24_17h13.02.887,stress,2023.1.0,60.01990259971459,
4,0,1,2,3,5,4,5,3,0,3,0,1,1,0,1,0,249,249,249,left,1,1.6794661999992968,None,,,,pil_004,001,0.9,1.0,2023-03-24_17h13.02.887,stress,2023.1.0,60.01990259971459,
3,2,1,5,0,4,4,6,3,0,3,5,0,0,1,1,0,250,250,250,up,1,0.9682108000015432,None,,,,pil_004,001,0.9,1.0,2023-03-24_17h13.02.887,stress,2023.1.0,60.01990259971459,
5,1,4,2,3,0,4,6,0,5,5,0,1,1,1,1,0,251,251,251,up,1,1.7964183000003686,None,,,,pil_004,001,0.9,1.0,2023-03-24_17h13.02.887,stress,2023.1.0,60.01990259971459,
5,0,3,1,2,4,4,3,6,5,0,3,1,1,1,1,0,252,252,252,up,1,1.100162900002033,None,,,,pil_004,001,0.9,1.0,2023-03-24_17h13.02.887,stress,2023.1.0,60.01990259971459,
3,4,2,0,5,1,4,3,0,0,5,6,1,1,0,1,0,253,253,253,left,1,1.1270164999987173,None,,,,pil_004,001,0.9,1.0,2023-03-24_17h13.02.887,stress,2023.1.0,60.01990259971459,
0,3,5,4,2,1,4,5,6,3,6,3,1,0,1,1,0,254,254,254,up,1,2.0641915000014706,None,,,,pil_004,001,0.9,1.0,2023-03-24_17h13.02.887,stress,2023.1.0,60.01990259971459,
5,4,2,3,1,0,4,6,5,0,5,3,1,1,1,1,0,255,255,255,up,1,1.3708004999971308,None,,,,pil_004,001,0.9,1.0,2023-03-24_17h13.02.887,stress,2023.1.0,60.01990259971459,
3,2,1,0,5,4,4,6,6,5,3,0,1,0,0,1,0,256,256,256,left,1,1.1116141999991669,None,,,,pil_004,001,0.9,1.0,2023-03-24_17h13.02.887,stress,2023.1.0,60.01990259971459,
3,5,0,4,2,1,4,5,6,6,3,0,1,1,1,1,0,257,257,257,up,1,0.8121595999982674,None,,,,pil_004,001,0.9,1.0,2023-03-24_17h13.02.887,stress,2023.1.0,60.01990259971459,
4,0,1,3,5,2,4,3,6,6,5,3,0,0,0,1,0,258,258,258,left,1,1.7021686999978556,None,,,,pil_004,001,0.9,1.0,2023-03-24_17h13.02.887,stress,2023.1.0,60.01990259971459,
0,4,3,1,5,2,4,0,5,3,6,3,1,0,1,1,0,259,259,259,up,1,1.299419900002249,None,,,,pil_004,001,0.9,1.0,2023-03-24_17h13.02.887,stress,2023.1.0,60.01990259971459,
5,1,4,2,3,0,4,3,0,3,0,5,1,0,0,1,0,260,260,260,left,1,1.3548491999972612,None,,,,pil_004,001,0.9,1.0,2023-03-24_17h13.02.887,stress,2023.1.0,60.01990259971459,
1,4,5,3,2,0,4,0,6,3,5,5,1,1,0,1,0,261,261,261,left,1,1.1011338999996951,None,,,,pil_004,001,0.9,1.0,2023-03-24_17h13.02.887,stress,2023.1.0,60.01990259971459,
1,3,5,0,4,2,4,0,6,6,3,5,1,0,0,1,0,262,262,262,left,1,0.7751990999968257,None,,,,pil_004,001,0.9,1.0,2023-03-24_17h13.02.887,stress,2023.1.0,60.01990259971459,
0,2,3,5,4,1,4,5,3,6,6,0,1,0,0,1,0,263,263,263,left,1,1.0773721000005025,None,,,,pil_004,001,0.9,1.0,2023-03-24_17h13.02.887,stress,2023.1.0,60.01990259971459,
4,0,3,1,2,5,4,0,0,6,6,5,1,1,1,1,0,264,264,264,up,1,1.1424202999987756,None,,,,pil_004,001,0.9,1.0,2023-03-24_17h13.02.887,stress,2023.1.0,60.01990259971459,
1,2,3,5,4,0,4,5,6,0,6,3,1,1,1,1,0,265,265,265,up,1,1.1588803000013286,None,,,,pil_004,001,0.9,1.0,2023-03-24_17h13.02.887,stress,2023.1.0,60.01990259971459,
1,4,0,2,5,3,4,5,0,3,6,3,0,1,1,1,0,266,266,266,up,1,0.6447656000018469,None,,,,pil_004,001,0.9,1.0,2023-03-24_17h13.02.887,stress,2023.1.0,60.01990259971459,
4,1,5,0,3,2,4,6,5,0,0,6,1,1,0,1,0,267,267,267,left,1,1.074078900001041,None,,,,pil_004,001,0.9,1.0,2023-03-24_17h13.02.887,stress,2023.1.0,60.01990259971459,
1,5,2,0,3,4,4,6,3,6,3,0,1,1,1,1,0,268,268,268,up,1,1.586647100000846,None,,,,pil_004,001,0.9,1.0,2023-03-24_17h13.02.887,stress,2023.1.0,60.01990259971459,
4,2,5,0,3,1,4,6,5,3,0,3,1,1,0,1,0,269,269,269,left,1,1.3891256999995676,None,,,,pil_004,001,0.9,1.0,2023-03-24_17h13.02.887,stress,2023.1.0,60.01990259971459,
0,3,4,5,2,1,4,5,6,0,3,0,1,1,1,1,0,270,270,270,up,1,1.3593819000016083,None,,,,pil_004,001,0.9,1.0,2023-03-24_17h13.02.887,stress,2023.1.0,60.01990259971459,
0,2,4,3,1,5,4,3,0,6,5,5,1,0,0,1,0,271,271,271,left,1,0.8996418999995512,None,,,,pil_004,001,0.9,1.0,2023-03-24_17h13.02.887,stress,2023.1.0,60.01990259971459,
1,0,2,3,5,4,4,3,6,6,3,0,1,0,1,1,0,272,272,272,up,1,1.9918192000004638,None,,,,pil_004,001,0.9,1.0,2023-03-24_17h13.02.887,stress,2023.1.0,60.01990259971459,
1,2,4,3,0,5,4,6,5,3,3,5,1,0,0,1,0,273,273,273,left,1,1.4525785000005271,None,,,,pil_004,001,0.9,1.0,2023-03-24_17h13.02.887,stress,2023.1.0,60.01990259971459,
3,2,1,4,5,0,4,6,0,3,5,6,1,1,0,1,0,274,274,274,left,1,0.8353150000002643,None,,,,pil_004,001,0.9,1.0,2023-03-24_17h13.02.887,stress,2023.1.0,60.01990259971459,
3,2,5,4,0,1,4,6,0,5,0,6,1,1,1,1,0,275,275,275,up,1,0.9148582000016177,None,,,,pil_004,001,0.9,1.0,2023-03-24_17h13.02.887,stress,2023.1.0,60.01990259971459,
0,5,4,3,1,2,4,0,3,5,3,6,1,1,0,1,0,276,276,276,left,1,1.541801999999734,None,,,,pil_004,001,0.9,1.0,2023-03-24_17h13.02.887,stress,2023.1.0,60.01990259971459,
2,0,1,5,4,3,4,6,5,5,0,6,1,1,0,1,0,277,277,277,left,1,0.6513020999991568,None,,,,pil_004,001,0.9,1.0,2023-03-24_17h13.02.887,stress,2023.1.0,60.01990259971459,
0,2,4,3,5,1,4,0,6,6,5,5,1,0,1,1,0,278,278,278,up,1,1.5222840999995242,None,,,,pil_004,001,0.9,1.0,2023-03-24_17h13.02.887,stress,2023.1.0,60.01990259971459,
5,3,0,1,2,4,4,5,3,0,5,0,1,0,0,1,0,279,279,279,left,1,1.2276832999996259,space,31.098313300000882,,,pil_004,001,0.9,1.0,2023-03-24_17h13.02.887,stress,2023.1.0,60.01990259971459,
4,1,2,3,5,0,4,0,5,6,6,5,1,1,0,1,0,280,280,280,left,1,1.5979441999988921,None,,,,pil_004,001,0.9,1.0,2023-03-24_17h13.02.887,stress,2023.1.0,60.01990259971459,
0,3,5,2,1,4,4,3,6,6,5,5,1,1,1,1,0,281,281,281,up,1,1.574746900001628,None,,,,pil_004,001,0.9,1.0,2023-03-24_17h13.02.887,stress,2023.1.0,60.01990259971459,
2,0,3,1,4,5,4,0,6,5,0,3,1,1,0,1,0,282,282,282,left,1,1.336970600001223,None,,,,pil_004,001,0.9,1.0,2023-03-24_17h13.02.887,stress,2023.1.0,60.01990259971459,
0,5,3,2,1,4,4,5,3,0,5,0,1,1,1,1,0,283,283,283,up,1,0.7513485999988916,None,,,,pil_004,001,0.9,1.0,2023-03-24_17h13.02.887,stress,2023.1.0,60.01990259971459,
2,1,0,5,4,3,4,6,3,5,5,0,1,1,1,1,0,284,284,284,up,1,0.8977231999997457,None,,,,pil_004,001,0.9,1.0,2023-03-24_17h13.02.887,stress,2023.1.0,60.01990259971459,
5,1,0,3,2,4,4,5,3,0,6,3,1,0,1,1,0,285,285,285,up,1,1.4318106999999145,None,,,,pil_004,001,0.9,1.0,2023-03-24_17h13.02.887,stress,2023.1.0,60.01990259971459,
5,0,1,4,2,3,4,3,0,0,3,6,1,1,1,1,0,286,286,286,up,1,0.7512053000027663,None,,,,pil_004,001,0.9,1.0,2023-03-24_17h13.02.887,stress,2023.1.0,60.01990259971459,
0,3,1,4,5,2,4,3,0,6,6,0,0,0,1,1,0,287,287,287,up,1,0.9173843000025954,None,,,,pil_004,001,0.9,1.0,2023-03-24_17h13.02.887,stress,2023.1.0,60.01990259971459,
4,1,2,0,3,5,4,5,3,3,5,6,1,0,1,1,0,288,288,288,up,1,1.6065841000017826,None,,,,pil_004,001,0.9,1.0,2023-03-24_17h13.02.887,stress,2023.1.0,60.01990259971459,
3,0,4,5,2,1,4,3,5,3,6,5,1,0,1,1,0,289,289,289,up,1,1.9004346000001533,None,,,,pil_004,001,0.9,1.0,2023-03-24_17h13.02.887,stress,2023.1.0,60.01990259971459,
4,3,2,5,0,1,4,5,6,5,3,0,1,0,1,1,0,290,290,290,up,1,1.4132964000018546,None,,,,pil_004,001,0.9,1.0,2023-03-24_17h13.02.887,stress,2023.1.0,60.01990259971459,
2,5,0,3,4,1,4,5,3,0,3,0,0,0,0,1,0,291,291,291,left,1,0.9530879999983881,None,,,,pil_004,001,0.9,1.0,2023-03-24_17h13.02.887,stress,2023.1.0,60.01990259971459,
2,1,5,3,4,0,4,3,5,0,6,6,0,1,0,1,0,292,292,292,left,1,0.5481785000010859,None,,,,pil_004,001,0.9,1.0,2023-03-24_17h13.02.887,stress,2023.1.0,60.01990259971459,
1,4,2,3,5,0,4,5,3,0,6,0,1,1,0,1,0,293,293,293,left,1,1.3421377999984543,None,,,,pil_004,001,0.9,1.0,2023-03-24_17h13.02.887,stress,2023.1.0,60.01990259971459,
2,5,4,3,1,0,4,5,0,6,0,5,1,1,1,1,0,294,294,294,up,1,0.8996231999990414,None,,,,pil_004,001,0.9,1.0,2023-03-24_17h13.02.887,stress,2023.1.0,60.01990259971459,
0,5,4,2,3,1,4,0,3,0,5,3,1,1,0,1,0,295,295,295,left,1,0.9155826999995043,None,,,,pil_004,001,0.9,1.0,2023-03-24_17h13.02.887,stress,2023.1.0,60.01990259971459,
3,0,2,1,4,5,4,5,5,0,6,3,1,1,0,1,0,296,296,296,left,1,0.8372684999994817,None,,,,pil_004,001,0.9,1.0,2023-03-24_17h13.02.887,stress,2023.1.0,60.01990259971459,
4,3,5,0,2,1,4,0,3,6,5,5,1,0,0,1,0,297,297,297,left,1,1.373929400000634,None,,,,pil_004,001,0.9,1.0,2023-03-24_17h13.02.887,stress,2023.1.0,60.01990259971459,
5,3,2,1,4,0,4,3,3,5,0,5,1,0,1,1,0,298,298,298,up,1,1.6473306000007142,None,,,,pil_004,001,0.9,1.0,2023-03-24_17h13.02.887,stress,2023.1.0,60.01990259971459,
3,5,1,2,4,0,4,6,3,0,5,6,1,0,1,1,0,299,299,299,up,1,1.2453186999991885,None,,,,pil_004,001,0.9,1.0,2023-03-24_17h13.02.887,stress,2023.1.0,60.01990259971459,
0,4,5,2,1,3,4,0,5,6,6,5,1,0,0,1,0,300,300,300,left,1,1.7359354000000167,None,,,,pil_004,001,0.9,1.0,2023-03-24_17h13.02.887,stress,2023.1.0,60.01990259971459,
3,2,4,1,0,5,4,5,0,6,0,3,1,0,1,1,0,301,301,301,up,1,0.7189194000020507,None,,,,pil_004,001,0.9,1.0,2023-03-24_17h13.02.887,stress,2023.1.0,60.01990259971459,
5,4,2,3,1,0,4,0,3,0,6,5,1,1,1,1,0,302,302,302,up,1,1.02375530000063,None,,,,pil_004,001,0.9,1.0,2023-03-24_17h13.02.887,stress,2023.1.0,60.01990259971459,
0,4,1,5,3,2,4,6,0,5,3,5,1,0,1,1,0,303,303,303,up,1,1.5922635000024457,None,,,,pil_004,001,0.9,1.0,2023-03-24_17h13.02.887,stress,2023.1.0,60.01990259971459,
0,2,4,1,3,5,4,0,3,5,3,6,1,1,1,1,0,304,304,304,up,1,0.8151400999995531,None,,,,pil_004,001,0.9,1.0,2023-03-24_17h13.02.887,stress,2023.1.0,60.01990259971459,
1,0,5,3,4,2,4,3,6,5,6,5,1,1,1,1,0,305,305,305,up,1,1.568256200000178,None,,,,pil_004,001,0.9,1.0,2023-03-24_17h13.02.887,stress,2023.1.0,60.01990259971459,
3,5,1,0,2,4,4,3,0,6,5,3,1,1,0,1,0,306,306,306,left,1,1.6173058999993373,None,,,,pil_004,001,0.9,1.0,2023-03-24_17h13.02.887,stress,2023.1.0,60.01990259971459,
4,2,3,1,0,5,4,0,5,3,0,6,1,0,1,1,0,307,307,307,up,1,1.0352018999983557,None,,,,pil_004,001,0.9,1.0,2023-03-24_17h13.02.887,stress,2023.1.0,60.01990259971459,
3,4,2,1,5,0,4,0,0,6,5,3,1,1,1,1,0,308,308,308,up,1,0.6361121000009007,None,,,,pil_004,001,0.9,1.0,2023-03-24_17h13.02.887,stress,2023.1.0,60.01990259971459,
4,1,0,5,2,3,4,5,3,5,6,6,1,1,1,1,0,309,309,309,up,1,0.9971516000005067,None,,,,pil_004,001,0.9,1.0,2023-03-24_17h13.02.887,stress,2023.1.0,60.01990259971459,
0,3,4,1,2,5,4,5,6,6,5,3,1,0,1,1,0,310,310,310,up,1,1.8587002999993274,None,,,,pil_004,001,0.9,1.0,2023-03-24_17h13.02.887,stress,2023.1.0,60.01990259971459,
0,3,5,4,2,1,4,5,3,6,0,6,1,1,0,1,0,311,311,311,left,1,1.6984560000018973,None,,,,pil_004,001,0.9,1.0,2023-03-24_17h13.02.887,stress,2023.1.0,60.01990259971459,
5,2,3,1,0,4,4,6,5,0,3,5,1,0,0,1,0,312,312,312,left,1,1.080738000000565,None,,,,pil_004,001,0.9,1.0,2023-03-24_17h13.02.887,stress,2023.1.0,60.01990259971459,
2,4,0,1,5,3,4,6,6,5,0,5,1,0,1,1,0,313,313,313,up,1,0.5810191000018676,None,,,,pil_004,001,0.9,1.0,2023-03-24_17h13.02.887,stress,2023.1.0,60.01990259971459,
3,0,5,4,2,1,4,5,6,3,6,0,1,0,0,1,0,314,314,314,left,1,0.9861482999986038,None,,,,pil_004,001,0.9,1.0,2023-03-24_17h13.02.887,stress,2023.1.0,60.01990259971459,
2,5,3,0,1,4,4,6,0,0,5,5,1,0,1,1,0,315,315,315,up,1,0.7575617999973474,None,,,,pil_004,001,0.9,1.0,2023-03-24_17h13.02.887,stress,2023.1.0,60.01990259971459,
5,2,3,0,1,4,4,3,5,0,6,5,1,1,1,1,0,316,316,316,up,1,1.0152452000002086,None,,,,pil_004,001,0.9,1.0,2023-03-24_17h13.02.887,stress,2023.1.0,60.01990259971459,
2,3,1,0,5,4,4,5,5,6,6,0,1,1,0,1,0,317,317,317,left,1,0.5844843000013498,None,,,,pil_004,001,0.9,1.0,2023-03-24_17h13.02.887,stress,2023.1.0,60.01990259971459,
4,3,5,1,0,2,4,5,0,5,6,0,1,1,0,1,0,318,318,318,left,1,1.6452222000007168,None,,,,pil_004,001,0.9,1.0,2023-03-24_17h13.02.887,stress,2023.1.0,60.01990259971459,
2,4,3,0,5,1,4,0,6,3,6,5,1,0,0,1,0,319,319,319,left,1,0.8961613999999827,space,1.381234200001927,,,pil_004,001,0.9,1.0,2023-03-24_17h13.02.887,stress,2023.1.0,60.01990259971459,
5,4,2,3,0,1,4,5,5,6,6,0,1,0,0,1,0,320,320,320,left,1,1.3511856000004627,None,,,,pil_004,001,0.9,1.0,2023-03-24_17h13.02.887,stress,2023.1.0,60.01990259971459,
4,0,5,1,2,3,4,5,3,0,6,6,1,1,1,1,0,321,321,321,up,1,0.9645797999983188,None,,,,pil_004,001,0.9,1.0,2023-03-24_17h13.02.887,stress,2023.1.0,60.01990259971459,
0,1,4,2,5,3,4,6,3,0,5,0,1,0,0,1,0,322,322,322,left,1,1.2754338999984611,None,,,,pil_004,001,0.9,1.0,2023-03-24_17h13.02.887,stress,2023.1.0,60.01990259971459,
3,1,2,5,4,0,4,3,5,0,3,6,0,1,1,1,0,323,323,323,up,1,0.670206099999632,None,,,,pil_004,001,0.9,1.0,2023-03-24_17h13.02.887,stress,2023.1.0,60.01990259971459,
5,1,2,4,0,3,4,5,0,6,3,5,1,1,1,1,0,324,324,324,up,1,0.8510887999982515,None,,,,pil_004,001,0.9,1.0,2023-03-24_17h13.02.887,stress,2023.1.0,60.01990259971459,
1,2,0,3,4,5,4,6,5,3,6,0,1,0,0,1,0,325,325,325,left,1,0.8383442999984254,None,,,,pil_004,001,0.9,1.0,2023-03-24_17h13.02.887,stress,2023.1.0,60.01990259971459,
5,4,2,1,3,0,4,0,6,5,0,5,1,0,1,1,0,326,326,326,up,1,0.8449347000023408,None,,,,pil_004,001,0.9,1.0,2023-03-24_17h13.02.887,stress,2023.1.0,60.01990259971459,
2,3,0,4,5,1,4,6,3,3,0,6,1,0,0,1,0,327,327,327,left,1,0.6997536000017135,None,,,,pil_004,001,0.9,1.0,2023-03-24_17h13.02.887,stress,2023.1.0,60.01990259971459,
2,0,4,1,5,3,4,0,6,5,3,0,1,0,0,1,0,328,328,328,left,1,1.7236912999978813,None,,,,pil_004,001,0.9,1.0,2023-03-24_17h13.02.887,stress,2023.1.0,60.01990259971459,
5,3,4,1,2,0,4,6,0,0,3,5,1,1,1,1,0,329,329,329,up,1,1.0657691999986127,None,,,,pil_004,001,0.9,1.0,2023-03-24_17h13.02.887,stress,2023.1.0,60.01990259971459,
1,4,3,0,5,2,4,5,6,3,6,3,1,1,1,1,0,330,330,330,up,1,0.8809631000003719,None,,,,pil_004,001,0.9,1.0,2023-03-24_17h13.02.887,stress,2023.1.0,60.01990259971459,
1,5,2,4,3,0,4,5,0,6,0,5,1,0,1,1,0,331,331,331,up,1,0.5932329999996,None,,,,pil_004,001,0.9,1.0,2023-03-24_17h13.02.887,stress,2023.1.0,60.01990259971459,
4,0,2,5,3,1,4,5,3,6,6,5,1,1,1,1,0,332,332,332,up,1,1.7260473000023921,None,,,,pil_004,001,0.9,1.0,2023-03-24_17h13.02.887,stress,2023.1.0,60.01990259971459,
4,2,0,5,1,3,4,5,0,0,3,6,1,0,1,1,0,333,333,333,up,1,1.07592189999923,None,,,,pil_004,001,0.9,1.0,2023-03-24_17h13.02.887,stress,2023.1.0,60.01990259971459,
5,0,1,3,4,2,4,3,0,6,5,5,1,0,1,1,0,334,334,334,up,1,0.6569721999985632,None,,,,pil_004,001,0.9,1.0,2023-03-24_17h13.02.887,stress,2023.1.0,60.01990259971459,
3,4,0,1,5,2,4,0,6,6,0,3,0,1,0,1,0,335,335,335,left,1,0.5011773999976867,None,,,,pil_004,001,0.9,1.0,2023-03-24_17h13.02.887,stress,2023.1.0,60.01990259971459,
2,3,5,0,4,1,4,3,6,3,6,5,1,1,1,1,0,336,336,336,up,1,0.6017836999999417,None,,,,pil_004,001,0.9,1.0,2023-03-24_17h13.02.887,stress,2023.1.0,60.01990259971459,
4,3,0,1,5,2,4,0,0,5,3,6,1,1,1,1,0,337,337,337,up,1,0.9650920999993104,None,,,,pil_004,001,0.9,1.0,2023-03-24_17h13.02.887,stress,2023.1.0,60.01990259971459,
5,1,4,3,2,0,4,0,5,6,5,6,1,0,1,1,0,338,338,338,up,1,0.7541670999999042,None,,,,pil_004,001,0.9,1.0,2023-03-24_17h13.02.887,stress,2023.1.0,60.01990259971459,
3,5,2,4,1,0,4,6,3,3,0,5,0,0,0,1,0,339,339,339,left,1,0.780662699999084,None,,,,pil_004,001,0.9,1.0,2023-03-24_17h13.02.887,stress,2023.1.0,60.01990259971459,
3,0,5,4,2,1,4,0,6,6,5,5,1,1,1,1,0,340,340,340,up,1,0.8727596999997331,None,,,,pil_004,001,0.9,1.0,2023-03-24_17h13.02.887,stress,2023.1.0,60.01990259971459,
5,0,1,3,4,2,4,5,3,6,0,3,1,0,1,1,0,341,341,341,up,1,1.2972137999968254,None,,,,pil_004,001,0.9,1.0,2023-03-24_17h13.02.887,stress,2023.1.0,60.01990259971459,
1,2,3,5,4,0,4,6,0,5,3,3,0,0,1,1,0,342,342,342,up,1,1.172628899999836,None,,,,pil_004,001,0.9,1.0,2023-03-24_17h13.02.887,stress,2023.1.0,60.01990259971459,
2,5,3,4,1,0,4,3,0,5,6,0,1,0,0,1,0,343,343,343,left,1,1.0935909999971045,None,,,,pil_004,001,0.9,1.0,2023-03-24_17h13.02.887,stress,2023.1.0,60.01990259971459,
5,4,0,1,3,2,4,5,0,5,6,3,1,1,1,1,0,344,344,344,up,1,1.1539623999997275,None,,,,pil_004,001,0.9,1.0,2023-03-24_17h13.02.887,stress,2023.1.0,60.01990259971459,
3,2,4,0,5,1,4,6,5,3,6,0,1,1,0,1,0,345,345,345,left,1,0.6848332000008668,None,,,,pil_004,001,0.9,1.0,2023-03-24_17h13.02.887,stress,2023.1.0,60.01990259971459,
2,3,0,4,1,5,4,6,0,3,5,3,1,1,1,1,0,346,346,346,up,1,0.5379591999990225,None,,,,pil_004,001,0.9,1.0,2023-03-24_17h13.02.887,stress,2023.1.0,60.01990259971459,
2,4,0,1,5,3,4,0,5,5,6,3,1,0,0,1,0,347,347,347,left,1,1.0097109000016644,None,,,,pil_004,001,0.9,1.0,2023-03-24_17h13.02.887,stress,2023.1.0,60.01990259971459,
3,2,0,1,4,5,4,0,6,0,6,3,1,0,0,1,0,348,348,348,left,1,0.731005899997399,None,,,,pil_004,001,0.9,1.0,2023-03-24_17h13.02.887,stress,2023.1.0,60.01990259971459,
0,2,5,3,4,1,4,0,5,5,3,0,1,1,1,1,0,349,349,349,up,1,1.3549107999970147,None,,,,pil_004,001,0.9,1.0,2023-03-24_17h13.02.887,stress,2023.1.0,60.01990259971459,
2,5,3,0,1,4,4,0,5,3,6,6,1,0,0,1,0,350,350,350,left,1,1.6109061000024667,None,,,,pil_004,001,0.9,1.0,2023-03-24_17h13.02.887,stress,2023.1.0,60.01990259971459,
3,2,4,5,1,0,4,0,6,0,5,3,1,0,1,1,0,351,351,351,up,1,0.5846372000014526,None,,,,pil_004,001,0.9,1.0,2023-03-24_17h13.02.887,stress,2023.1.0,60.01990259971459,
2,5,1,0,4,3,4,3,5,0,6,3,1,1,0,1,0,352,352,352,left,1,0.798365400001785,None,,,,pil_004,001,0.9,1.0,2023-03-24_17h13.02.887,stress,2023.1.0,60.01990259971459,
1,0,4,2,3,5,4,5,3,0,6,6,1,0,1,1,0,353,353,353,up,1,1.0040310000003956,None,,,,pil_004,001,0.9,1.0,2023-03-24_17h13.02.887,stress,2023.1.0,60.01990259971459,
0,4,5,3,2,1,4,0,5,6,3,3,1,1,1,1,0,354,354,354,up,1,0.9665415000017674,None,,,,pil_004,001,0.9,1.0,2023-03-24_17h13.02.887,stress,2023.1.0,60.01990259971459,
1,4,2,0,3,5,4,0,6,0,5,6,1,1,1,1,0,355,355,355,up,1,0.9753407999996853,None,,,,pil_004,001,0.9,1.0,2023-03-24_17h13.02.887,stress,2023.1.0,60.01990259971459,
3,5,2,0,4,1,4,3,6,3,5,0,1,1,1,1,0,356,356,356,up,1,0.6564995000007912,None,,,,pil_004,001,0.9,1.0,2023-03-24_17h13.02.887,stress,2023.1.0,60.01990259971459,
0,2,3,1,4,5,4,0,3,6,5,0,1,1,0,1,0,357,357,357,left,1,1.4690276000001177,None,,,,pil_004,001,0.9,1.0,2023-03-24_17h13.02.887,stress,2023.1.0,60.01990259971459,
4,3,0,5,2,1,4,5,3,0,5,6,1,0,1,1,0,358,358,358,up,1,1.1154530999992858,None,,,,pil_004,001,0.9,1.0,2023-03-24_17h13.02.887,stress,2023.1.0,60.01990259971459,
5,2,3,0,1,4,4,5,5,0,0,6,1,1,0,1,0,359,359,359,left,1,1.0502071000009892,space,1.5892701000011584,,,pil_004,001,0.9,1.0,2023-03-24_17h13.02.887,stress,2023.1.0,60.01990259971459,
5,2,3,1,0,4,4,5,6,3,0,5,1,1,1,1,0,360,360,360,up,1,1.3055200999988301,None,,,,pil_004,001,0.9,1.0,2023-03-24_17h13.02.887,stress,2023.1.0,60.01990259971459,
4,1,0,5,2,3,4,6,0,3,5,0,1,0,0,1,0,361,361,361,left,1,1.158643700000539,None,,,,pil_004,001,0.9,1.0,2023-03-24_17h13.02.887,stress,2023.1.0,60.01990259971459,
3,5,2,0,1,4,4,6,0,0,3,5,1,0,0,1,0,362,362,362,left,1,2.357899399998132,None,,,,pil_004,001,0.9,1.0,2023-03-24_17h13.02.887,stress,2023.1.0,60.01990259971459,
3,1,4,0,5,2,4,0,5,6,5,3,1,0,1,1,0,363,363,363,up,1,0.7217291999986628,None,,,,pil_004,001,0.9,1.0,2023-03-24_17h13.02.887,stress,2023.1.0,60.01990259971459,
1,5,4,0,3,2,4,6,3,0,3,5,1,0,0,1,0,364,364,364,left,1,1.2675929000033648,None,,,,pil_004,001,0.9,1.0,2023-03-24_17h13.02.887,stress,2023.1.0,60.01990259971459,
2,3,0,1,4,5,4,6,5,0,0,5,1,1,0,1,0,365,365,365,left,1,0.8132921999967948,None,,,,pil_004,001,0.9,1.0,2023-03-24_17h13.02.887,stress,2023.1.0,60.01990259971459,
0,2,3,4,5,1,4,5,3,0,6,5,0,1,1,1,0,366,366,366,up,1,1.5630793999989692,None,,,,pil_004,001,0.9,1.0,2023-03-24_17h13.02.887,stress,2023.1.0,60.01990259971459,
4,5,3,0,2,1,4,6,3,3,0,0,0,1,1,1,0,367,367,367,up,1,1.0247705000001588,None,,,,pil_004,001,0.9,1.0,2023-03-24_17h13.02.887,stress,2023.1.0,60.01990259971459,
0,4,5,1,2,3,4,6,6,0,0,5,1,1,0,1,0,368,368,368,left,1,1.3325363000003563,None,,,,pil_004,001,0.9,1.0,2023-03-24_17h13.02.887,stress,2023.1.0,60.01990259971459,
4,2,5,1,0,3,4,5,3,6,6,5,1,0,0,1,0,369,369,369,left,1,1.5959528999992472,None,,,,pil_004,001,0.9,1.0,2023-03-24_17h13.02.887,stress,2023.1.0,60.01990259971459,
5,3,2,1,0,4,4,3,6,5,0,5,1,1,1,1,0,370,370,370,up,1,0.7800929000004544,None,,,,pil_004,001,0.9,1.0,2023-03-24_17h13.02.887,stress,2023.1.0,60.01990259971459,
1,5,2,4,3,0,4,0,6,5,0,3,1,1,0,1,0,371,371,371,left,1,1.4941244000001461,None,,,,pil_004,001,0.9,1.0,2023-03-24_17h13.02.887,stress,2023.1.0,60.01990259971459,
0,5,4,3,1,2,4,6,6,3,5,3,1,1,1,1,0,372,372,372,up,1,0.882973599997058,None,,,,pil_004,001,0.9,1.0,2023-03-24_17h13.02.887,stress,2023.1.0,60.01990259971459,
2,3,0,4,1,5,4,6,6,5,0,3,1,1,1,1,0,373,373,373,up,1,1.22323310000138,None,,,,pil_004,001,0.9,1.0,2023-03-24_17h13.02.887,stress,2023.1.0,60.01990259971459,
4,1,2,5,0,3,4,3,5,3,6,0,1,1,1,1,0,374,374,374,up,1,1.476696699999593,None,,,,pil_004,001,0.9,1.0,2023-03-24_17h13.02.887,stress,2023.1.0,60.01990259971459,
0,5,3,2,4,1,4,0,6,5,3,3,1,0,0,1,0,375,375,375,left,1,1.7158254999994824,None,,,,pil_004,001,0.9,1.0,2023-03-24_17h13.02.887,stress,2023.1.0,60.01990259971459,
0,1,4,5,3,2,4,5,3,0,3,6,1,1,1,1,0,376,376,376,up,1,1.089202999999543,None,,,,pil_004,001,0.9,1.0,2023-03-24_17h13.02.887,stress,2023.1.0,60.01990259971459,
4,5,2,1,3,0,4,6,3,0,0,6,1,0,1,1,0,377,377,377,up,1,0.9379477000002225,None,,,,pil_004,001,0.9,1.0,2023-03-24_17h13.02.887,stress,2023.1.0,60.01990259971459,
2,0,4,3,1,5,4,5,3,5,0,3,1,1,0,1,0,378,378,378,left,1,2.1380352999985917,None,,,,pil_004,001,0.9,1.0,2023-03-24_17h13.02.887,stress,2023.1.0,60.01990259971459,
3,5,2,4,1,0,4,3,5,0,0,3,1,0,0,1,0,379,379,379,left,1,0.8559451999972225,None,,,,pil_004,001,0.9,1.0,2023-03-24_17h13.02.887,stress,2023.1.0,60.01990259971459,
5,2,4,1,0,3,4,6,5,0,3,3,1,1,0,1,0,380,380,380,left,1,1.6915434000002278,None,,,,pil_004,001,0.9,1.0,2023-03-24_17h13.02.887,stress,2023.1.0,60.01990259971459,
0,3,5,4,1,2,4,3,0,5,6,3,1,0,1,1,0,381,381,381,up,1,1.008462599998893,None,,,,pil_004,001,0.9,1.0,2023-03-24_17h13.02.887,stress,2023.1.0,60.01990259971459,
0,4,1,3,2,5,4,0,3,5,5,6,0,1,1,1,0,382,382,382,up,1,1.1070819000015035,None,,,,pil_004,001,0.9,1.0,2023-03-24_17h13.02.887,stress,2023.1.0,60.01990259971459,
0,1,3,2,4,5,4,6,6,3,0,3,1,1,0,1,0,383,383,383,left,1,0.8676970999986224,None,,,,pil_004,001,0.9,1.0,2023-03-24_17h13.02.887,stress,2023.1.0,60.01990259971459,
4,3,0,5,1,2,4,3,5,0,6,3,1,1,1,1,0,384,384,384,up,1,1.42488400000002,None,,,,pil_004,001,0.9,1.0,2023-03-24_17h13.02.887,stress,2023.1.0,60.01990259971459,
1,0,5,3,4,2,4,3,6,0,5,6,1,0,0,1,0,385,385,385,left,1,1.4859520999998495,None,,,,pil_004,001,0.9,1.0,2023-03-24_17h13.02.887,stress,2023.1.0,60.01990259971459,
4,5,2,0,3,1,4,6,0,3,0,5,1,0,1,1,0,386,386,386,up,1,1.0501764000000549,None,,,,pil_004,001,0.9,1.0,2023-03-24_17h13.02.887,stress,2023.1.0,60.01990259971459,
3,1,5,4,2,0,4,5,0,0,3,6,1,0,1,1,0,387,387,387,up,1,0.7246578999984195,None,,,,pil_004,001,0.9,1.0,2023-03-24_17h13.02.887,stress,2023.1.0,60.01990259971459,
1,2,4,3,5,0,4,0,5,5,6,0,1,0,1,1,0,388,388,388,up,1,1.2017526000017824,None,,,,pil_004,001,0.9,1.0,2023-03-24_17h13.02.887,stress,2023.1.0,60.01990259971459,
3,4,1,5,0,2,4,5,5,3,0,6,1,0,1,1,0,389,389,389,up,1,0.9223435999992944,None,,,,pil_004,001,0.9,1.0,2023-03-24_17h13.02.887,stress,2023.1.0,60.01990259971459,
4,0,5,2,3,1,4,5,6,3,0,5,1,1,0,1,0,390,390,390,left,1,1.0972842999981367,None,,,,pil_004,001,0.9,1.0,2023-03-24_17h13.02.887,stress,2023.1.0,60.01990259971459,
4,3,2,0,1,5,4,0,3,6,5,3,1,1,1,1,0,391,391,391,up,1,0.7829314000009617,None,,,,pil_004,001,0.9,1.0,2023-03-24_17h13.02.887,stress,2023.1.0,60.01990259971459,
3,4,0,2,5,1,4,6,5,0,3,5,1,0,0,1,0,392,392,392,left,1,0.9182647999987239,None,,,,pil_004,001,0.9,1.0,2023-03-24_17h13.02.887,stress,2023.1.0,60.01990259971459,
3,0,1,5,2,4,4,5,3,6,0,3,1,0,0,1,0,393,393,393,left,1,0.5393238999968162,None,,,,pil_004,001,0.9,1.0,2023-03-24_17h13.02.887,stress,2023.1.0,60.01990259971459,
3,2,0,4,5,1,4,6,3,0,0,3,1,0,0,1,0,394,394,394,left,1,0.443356899999344,None,,,,pil_004,001,0.9,1.0,2023-03-24_17h13.02.887,stress,2023.1.0,60.01990259971459,
4,1,3,0,5,2,4,0,0,5,6,5,1,1,1,1,0,395,395,395,up,1,0.6280657000024803,None,,,,pil_004,001,0.9,1.0,2023-03-24_17h13.02.887,stress,2023.1.0,60.01990259971459,
1,2,3,5,4,0,4,0,6,5,0,6,1,1,0,1,0,396,396,396,left,1,1.5785324000025867,None,,,,pil_004,001,0.9,1.0,2023-03-24_17h13.02.887,stress,2023.1.0,60.01990259971459,
5,2,0,4,1,3,4,3,6,6,3,0,1,0,0,1,0,397,397,397,left,1,0.8692229999978736,None,,,,pil_004,001,0.9,1.0,2023-03-24_17h13.02.887,stress,2023.1.0,60.01990259971459,
3,1,4,2,5,0,4,3,5,3,5,0,1,1,1,1,0,398,398,398,up,1,0.9630034000001615,None,,,,pil_004,001,0.9,1.0,2023-03-24_17h13.02.887,stress,2023.1.0,60.01990259971459,
2,5,4,3,0,1,4,5,5,6,3,0,1,0,0,1,0,399,399,399,left,1,0.744849399998202,space,5.997906900000089,,,pil_004,001,0.9,1.0,2023-03-24_17h13.02.887,stress,2023.1.0,60.01990259971459,
,,,,,,,,,,,,,,,,,,,,,,,,,space,1.6649940000024799,pil_004,001,0.9,1.0,2023-03-24_17h13.02.887,stress,2023.1.0,60.01990259971459,
