pos1,pos2,pos3,pos4,pos5,pos6,shape1,shape2,shape3,shape4,shape5,shape6,singleton,target_color,target_orientation,cue_validity,trials.thisRepN,trials.thisTrialN,trials.thisN,trials.thisIndex,search_response.keys,search_response.corr,search_response.rt,key_block.keys,key_block.rt,end_key.keys,end_key.rt,participant,session,distractor_prevalence,validity,date,expName,psychopyVersion,frameRate,
1,2,4,0,3,5,4,5,3,0,6,3,1,0,0,1,0,0,0,0,left,1,1.4173117999998794,None,,,,pil_001,002,0.9,1.0,2023-03-22_12h52.27.619,stress,2023.1.0,59.883502633903866,
3,4,2,1,5,0,4,6,5,3,6,0,1,0,1,1,0,1,1,1,up,1,1.289933000000019,None,,,,pil_001,002,0.9,1.0,2023-03-22_12h52.27.619,stress,2023.1.0,59.883502633903866,
0,1,4,2,5,3,4,0,3,6,5,0,1,0,1,1,0,2,2,2,up,1,0.6861803000001601,None,,,,pil_001,002,0.9,1.0,2023-03-22_12h52.27.619,stress,2023.1.0,59.883502633903866,
3,0,1,2,5,4,4,3,5,0,5,6,0,1,0,1,0,3,3,3,left,1,0.6584637999994811,None,,,,pil_001,002,0.9,1.0,2023-03-22_12h52.27.619,stress,2023.1.0,59.883502633903866,
4,2,1,3,5,0,4,3,5,5,6,6,1,0,0,1,0,4,4,4,left,1,0.9773312000006626,None,,,,pil_001,002,0.9,1.0,2023-03-22_12h52.27.619,stress,2023.1.0,59.883502633903866,
2,5,3,0,1,4,4,3,3,0,6,6,1,1,1,1,0,5,5,5,up,1,0.7525313999994978,None,,,,pil_001,002,0.9,1.0,2023-03-22_12h52.27.619,stress,2023.1.0,59.883502633903866,
5,2,0,4,1,3,4,5,3,0,5,0,1,0,0,1,0,6,6,6,left,1,0.9374477000001207,None,,,,pil_001,002,0.9,1.0,2023-03-22_12h52.27.619,stress,2023.1.0,59.883502633903866,
2,4,1,3,5,0,4,5,3,0,3,6,1,1,0,1,0,7,7,7,up,0,0.7827515999997559,None,,,,pil_001,002,0.9,1.0,2023-03-22_12h52.27.619,stress,2023.1.0,59.883502633903866,
0,2,1,4,3,5,4,3,6,0,5,0,1,0,0,1,0,8,8,8,left,1,2.197283499999685,None,,,,pil_001,002,0.9,1.0,2023-03-22_12h52.27.619,stress,2023.1.0,59.883502633903866,
4,3,5,1,2,0,4,0,3,5,3,6,0,0,0,1,0,9,9,9,left,1,0.9118587000002663,None,,,,pil_001,002,0.9,1.0,2023-03-22_12h52.27.619,stress,2023.1.0,59.883502633903866,
4,0,1,2,5,3,4,5,3,5,3,0,0,1,1,1,0,10,10,10,up,1,0.5232569999998304,None,,,,pil_001,002,0.9,1.0,2023-03-22_12h52.27.619,stress,2023.1.0,59.883502633903866,
4,1,3,5,0,2,4,5,3,0,6,5,1,0,0,1,0,11,11,11,left,1,0.7424614999999903,None,,,,pil_001,002,0.9,1.0,2023-03-22_12h52.27.619,stress,2023.1.0,59.883502633903866,
2,3,4,0,5,1,4,6,5,5,3,0,0,1,1,1,0,12,12,12,up,1,0.6788131999992402,None,,,,pil_001,002,0.9,1.0,2023-03-22_12h52.27.619,stress,2023.1.0,59.883502633903866,
2,5,0,1,4,3,4,6,5,3,0,0,1,0,0,1,0,13,13,13,left,1,0.5867643999999927,None,,,,pil_001,002,0.9,1.0,2023-03-22_12h52.27.619,stress,2023.1.0,59.883502633903866,
3,0,4,5,2,1,4,6,0,0,5,6,1,0,1,1,0,14,14,14,left,0,0.7982988000003388,None,,,,pil_001,002,0.9,1.0,2023-03-22_12h52.27.619,stress,2023.1.0,59.883502633903866,
2,4,5,3,1,0,4,5,0,3,6,0,0,1,0,1,0,15,15,15,left,1,0.8009044000000358,None,,,,pil_001,002,0.9,1.0,2023-03-22_12h52.27.619,stress,2023.1.0,59.883502633903866,
3,2,5,0,4,1,4,3,0,5,5,6,1,1,1,1,0,16,16,16,up,1,0.6037261000001308,None,,,,pil_001,002,0.9,1.0,2023-03-22_12h52.27.619,stress,2023.1.0,59.883502633903866,
5,1,0,2,3,4,4,3,5,5,3,6,1,1,1,1,0,17,17,17,up,1,1.2319654999992053,None,,,,pil_001,002,0.9,1.0,2023-03-22_12h52.27.619,stress,2023.1.0,59.883502633903866,
4,5,3,2,0,1,4,5,5,3,6,3,1,1,1,1,0,18,18,18,up,1,0.7637237999997524,None,,,,pil_001,002,0.9,1.0,2023-03-22_12h52.27.619,stress,2023.1.0,59.883502633903866,
0,5,4,1,3,2,4,6,3,6,5,5,1,1,0,1,0,19,19,19,left,1,1.233284800000547,None,,,,pil_001,002,0.9,1.0,2023-03-22_12h52.27.619,stress,2023.1.0,59.883502633903866,
1,0,3,5,4,2,4,6,3,6,0,5,1,0,0,1,0,20,20,20,left,1,1.126941700000316,None,,,,pil_001,002,0.9,1.0,2023-03-22_12h52.27.619,stress,2023.1.0,59.883502633903866,
5,1,0,3,2,4,4,6,6,5,5,3,1,1,0,1,0,21,21,21,left,1,0.944082800000615,None,,,,pil_001,002,0.9,1.0,2023-03-22_12h52.27.619,stress,2023.1.0,59.883502633903866,
2,0,4,3,5,1,4,3,5,5,6,6,1,0,1,1,0,22,22,22,up,1,0.9340699000003951,None,,,,pil_001,002,0.9,1.0,2023-03-22_12h52.27.619,stress,2023.1.0,59.883502633903866,
2,0,3,5,1,4,4,0,5,6,0,3,1,0,1,1,0,23,23,23,up,1,0.6931444000001648,None,,,,pil_001,002,0.9,1.0,2023-03-22_12h52.27.619,stress,2023.1.0,59.883502633903866,
4,0,2,5,1,3,4,0,6,3,3,6,0,0,1,1,0,24,24,24,up,1,0.7001209000000017,None,,,,pil_001,002,0.9,1.0,2023-03-22_12h52.27.619,stress,2023.1.0,59.883502633903866,
1,4,3,5,2,0,4,0,3,5,0,5,1,0,1,1,0,25,25,25,up,1,0.8713046000002578,None,,,,pil_001,002,0.9,1.0,2023-03-22_12h52.27.619,stress,2023.1.0,59.883502633903866,
2,4,1,5,0,3,4,3,6,5,5,6,0,0,0,1,0,26,26,26,left,1,0.6529645999999047,None,,,,pil_001,002,0.9,1.0,2023-03-22_12h52.27.619,stress,2023.1.0,59.883502633903866,
0,3,1,4,5,2,4,5,3,6,0,6,1,1,0,1,0,27,27,27,left,1,1.3040944999993371,None,,,,pil_001,002,0.9,1.0,2023-03-22_12h52.27.619,stress,2023.1.0,59.883502633903866,
2,1,4,3,5,0,4,0,6,5,6,3,1,0,0,1,0,28,28,28,left,1,0.6312299999999595,None,,,,pil_001,002,0.9,1.0,2023-03-22_12h52.27.619,stress,2023.1.0,59.883502633903866,
1,2,4,3,0,5,4,5,6,5,3,6,1,0,0,1,0,29,29,29,left,1,1.0283675999999105,None,,,,pil_001,002,0.9,1.0,2023-03-22_12h52.27.619,stress,2023.1.0,59.883502633903866,
0,4,5,2,3,1,4,0,6,5,3,0,1,1,0,1,0,30,30,30,left,1,0.8532901999997193,None,,,,pil_001,002,0.9,1.0,2023-03-22_12h52.27.619,stress,2023.1.0,59.883502633903866,
2,0,4,5,3,1,4,6,5,0,0,3,1,0,0,1,0,31,31,31,left,1,0.5812244999997347,None,,,,pil_001,002,0.9,1.0,2023-03-22_12h52.27.619,stress,2023.1.0,59.883502633903866,
5,1,0,3,2,4,4,6,5,0,0,6,1,0,1,1,0,32,32,32,up,1,0.9957791000006182,None,,,,pil_001,002,0.9,1.0,2023-03-22_12h52.27.619,stress,2023.1.0,59.883502633903866,
5,3,4,0,2,1,4,0,5,5,6,6,1,0,0,1,0,33,33,33,left,1,0.7277614000004178,None,,,,pil_001,002,0.9,1.0,2023-03-22_12h52.27.619,stress,2023.1.0,59.883502633903866,
0,1,3,5,2,4,4,6,3,5,6,3,1,0,1,1,0,34,34,34,up,1,0.5700018999996246,None,,,,pil_001,002,0.9,1.0,2023-03-22_12h52.27.619,stress,2023.1.0,59.883502633903866,
5,3,2,4,1,0,4,6,6,0,5,5,1,0,0,1,0,35,35,35,left,1,1.325218599999971,None,,,,pil_001,002,0.9,1.0,2023-03-22_12h52.27.619,stress,2023.1.0,59.883502633903866,
5,2,1,0,4,3,4,6,0,3,5,3,1,1,1,1,0,36,36,36,up,1,1.8423476999996637,None,,,,pil_001,002,0.9,1.0,2023-03-22_12h52.27.619,stress,2023.1.0,59.883502633903866,
1,0,3,5,2,4,4,0,5,3,6,6,1,0,0,1,0,37,37,37,left,1,1.2887874999996711,None,,,,pil_001,002,0.9,1.0,2023-03-22_12h52.27.619,stress,2023.1.0,59.883502633903866,
4,1,3,0,2,5,4,5,0,3,0,5,1,1,0,1,0,38,38,38,left,1,0.6708502000001317,None,,,,pil_001,002,0.9,1.0,2023-03-22_12h52.27.619,stress,2023.1.0,59.883502633903866,
2,5,3,1,0,4,4,6,0,5,5,6,1,0,1,1,0,39,39,39,up,1,0.6609058000003643,space,2.8638377000006585,,,pil_001,002,0.9,1.0,2023-03-22_12h52.27.619,stress,2023.1.0,59.883502633903866,
5,0,3,1,4,2,4,0,5,5,6,3,1,0,0,1,0,40,40,40,left,1,1.4241068000001178,None,,,,pil_001,002,0.9,1.0,2023-03-22_12h52.27.619,stress,2023.1.0,59.883502633903866,
3,0,5,2,1,4,4,0,0,3,5,6,0,0,0,1,0,41,41,41,left,1,1.0011936999999307,None,,,,pil_001,002,0.9,1.0,2023-03-22_12h52.27.619,stress,2023.1.0,59.883502633903866,
3,0,4,1,2,5,4,0,5,3,0,3,1,1,0,1,0,42,42,42,left,1,0.7612575000002835,None,,,,pil_001,002,0.9,1.0,2023-03-22_12h52.27.619,stress,2023.1.0,59.883502633903866,
4,2,0,5,3,1,4,3,3,0,5,0,1,1,0,1,0,43,43,43,left,1,0.6452409000003172,None,,,,pil_001,002,0.9,1.0,2023-03-22_12h52.27.619,stress,2023.1.0,59.883502633903866,
3,1,2,4,5,0,4,0,5,0,3,5,1,1,1,1,0,44,44,44,up,1,0.49396840000008524,None,,,,pil_001,002,0.9,1.0,2023-03-22_12h52.27.619,stress,2023.1.0,59.883502633903866,
3,4,1,2,0,5,4,5,5,6,3,3,1,1,1,1,0,45,45,45,up,1,0.5188140000000203,None,,,,pil_001,002,0.9,1.0,2023-03-22_12h52.27.619,stress,2023.1.0,59.883502633903866,
1,5,4,3,2,0,4,3,6,5,5,3,1,1,0,1,0,46,46,46,left,1,0.9827392999995936,None,,,,pil_001,002,0.9,1.0,2023-03-22_12h52.27.619,stress,2023.1.0,59.883502633903866,
3,0,1,4,5,2,4,3,0,3,6,5,1,0,1,1,0,47,47,47,left,0,0.5270332999998573,None,,,,pil_001,002,0.9,1.0,2023-03-22_12h52.27.619,stress,2023.1.0,59.883502633903866,
4,0,3,1,5,2,4,3,5,5,0,6,1,0,0,1,0,48,48,48,up,0,0.7683535999995001,None,,,,pil_001,002,0.9,1.0,2023-03-22_12h52.27.619,stress,2023.1.0,59.883502633903866,
2,1,4,0,5,3,4,6,0,6,0,5,1,1,1,1,0,49,49,49,up,1,0.47798750000038126,None,,,,pil_001,002,0.9,1.0,2023-03-22_12h52.27.619,stress,2023.1.0,59.883502633903866,
2,3,0,5,4,1,4,5,5,6,3,0,1,1,0,1,0,50,50,50,left,1,0.741644599999745,left,0.055673099999694386,,,pil_001,002,0.9,1.0,2023-03-22_12h52.27.619,stress,2023.1.0,59.883502633903866,
3,0,5,4,2,1,4,0,3,6,3,0,1,1,0,1,0,51,51,51,left,1,0.8421945000000051,None,,,,pil_001,002,0.9,1.0,2023-03-22_12h52.27.619,stress,2023.1.0,59.883502633903866,
0,1,5,2,3,4,4,5,0,3,3,0,1,1,0,1,0,52,52,52,left,1,0.7387687999998889,None,,,,pil_001,002,0.9,1.0,2023-03-22_12h52.27.619,stress,2023.1.0,59.883502633903866,
0,2,1,3,5,4,4,3,3,5,6,0,1,1,0,1,0,53,53,53,left,1,1.323526099999981,None,,,,pil_001,002,0.9,1.0,2023-03-22_12h52.27.619,stress,2023.1.0,59.883502633903866,
4,1,2,5,0,3,4,6,0,6,0,3,1,0,1,1,0,54,54,54,up,1,1.973698499999955,None,,,,pil_001,002,0.9,1.0,2023-03-22_12h52.27.619,stress,2023.1.0,59.883502633903866,
4,2,0,3,5,1,4,0,3,6,5,3,1,1,0,1,0,55,55,55,left,1,0.721338399999695,None,,,,pil_001,002,0.9,1.0,2023-03-22_12h52.27.619,stress,2023.1.0,59.883502633903866,
1,2,3,4,0,5,4,0,3,6,5,0,1,0,1,1,0,56,56,56,up,1,1.2036026000005222,None,,,,pil_001,002,0.9,1.0,2023-03-22_12h52.27.619,stress,2023.1.0,59.883502633903866,
3,1,2,5,0,4,4,6,6,0,0,5,0,1,1,1,0,57,57,57,up,1,1.8791073000002143,None,,,,pil_001,002,0.9,1.0,2023-03-22_12h52.27.619,stress,2023.1.0,59.883502633903866,
4,5,2,1,0,3,4,6,3,6,3,5,1,0,1,1,0,58,58,58,up,1,1.0158649000004516,None,,,,pil_001,002,0.9,1.0,2023-03-22_12h52.27.619,stress,2023.1.0,59.883502633903866,
5,3,1,4,0,2,4,5,6,3,6,3,1,1,0,1,0,59,59,59,left,1,1.400290099999438,None,,,,pil_001,002,0.9,1.0,2023-03-22_12h52.27.619,stress,2023.1.0,59.883502633903866,
0,3,4,5,1,2,4,5,6,0,3,3,1,1,1,1,0,60,60,60,up,1,0.6914230000002135,None,,,,pil_001,002,0.9,1.0,2023-03-22_12h52.27.619,stress,2023.1.0,59.883502633903866,
4,0,1,2,5,3,4,0,3,0,5,5,0,0,0,1,0,61,61,61,left,1,0.7354242999999769,None,,,,pil_001,002,0.9,1.0,2023-03-22_12h52.27.619,stress,2023.1.0,59.883502633903866,
5,0,1,4,3,2,4,5,0,0,3,6,1,1,1,1,0,62,62,62,up,1,0.7653515000001789,None,,,,pil_001,002,0.9,1.0,2023-03-22_12h52.27.619,stress,2023.1.0,59.883502633903866,
2,4,3,0,5,1,4,3,3,6,5,6,1,0,1,1,0,63,63,63,up,1,0.897831899999801,None,,,,pil_001,002,0.9,1.0,2023-03-22_12h52.27.619,stress,2023.1.0,59.883502633903866,
4,3,5,2,1,0,4,3,5,3,5,6,1,0,1,1,0,64,64,64,up,1,0.607102599999962,None,,,,pil_001,002,0.9,1.0,2023-03-22_12h52.27.619,stress,2023.1.0,59.883502633903866,
0,5,4,2,1,3,4,3,5,5,0,6,1,1,1,1,0,65,65,65,up,1,1.2749099000002388,None,,,,pil_001,002,0.9,1.0,2023-03-22_12h52.27.619,stress,2023.1.0,59.883502633903866,
3,1,4,2,5,0,4,3,3,5,0,0,1,1,1,1,0,66,66,66,up,1,0.8342524999998204,None,,,,pil_001,002,0.9,1.0,2023-03-22_12h52.27.619,stress,2023.1.0,59.883502633903866,
1,4,0,5,2,3,4,3,6,5,5,0,1,1,1,1,0,67,67,67,up,1,0.7834812999999485,None,,,,pil_001,002,0.9,1.0,2023-03-22_12h52.27.619,stress,2023.1.0,59.883502633903866,
1,4,0,5,2,3,4,3,0,6,5,3,1,0,0,1,0,68,68,68,left,1,1.1498144000006505,None,,,,pil_001,002,0.9,1.0,2023-03-22_12h52.27.619,stress,2023.1.0,59.883502633903866,
2,3,4,1,5,0,4,5,0,6,3,3,1,0,1,1,0,69,69,69,up,1,0.6915219999991677,None,,,,pil_001,002,0.9,1.0,2023-03-22_12h52.27.619,stress,2023.1.0,59.883502633903866,
1,2,5,0,3,4,4,0,3,6,5,0,1,1,1,1,0,70,70,70,up,1,1.1694690000003902,None,,,,pil_001,002,0.9,1.0,2023-03-22_12h52.27.619,stress,2023.1.0,59.883502633903866,
0,4,5,3,1,2,4,3,5,0,5,6,1,0,0,1,0,71,71,71,left,1,1.1174896000002263,None,,,,pil_001,002,0.9,1.0,2023-03-22_12h52.27.619,stress,2023.1.0,59.883502633903866,
1,2,5,0,3,4,4,6,6,3,5,3,0,0,1,1,0,72,72,72,up,1,0.9246747999995932,None,,,,pil_001,002,0.9,1.0,2023-03-22_12h52.27.619,stress,2023.1.0,59.883502633903866,
3,5,2,4,1,0,4,0,0,5,3,6,1,0,1,1,0,73,73,73,up,1,0.8193062999998801,None,,,,pil_001,002,0.9,1.0,2023-03-22_12h52.27.619,stress,2023.1.0,59.883502633903866,
0,5,1,2,3,4,4,0,3,5,6,3,1,0,1,1,0,74,74,74,up,1,0.5235177999993539,None,,,,pil_001,002,0.9,1.0,2023-03-22_12h52.27.619,stress,2023.1.0,59.883502633903866,
4,1,5,0,3,2,4,5,6,3,0,5,1,1,0,1,0,75,75,75,left,1,0.8164155999993454,None,,,,pil_001,002,0.9,1.0,2023-03-22_12h52.27.619,stress,2023.1.0,59.883502633903866,
2,1,4,5,0,3,4,5,6,3,0,3,1,1,1,1,0,76,76,76,up,1,1.1570026999997935,None,,,,pil_001,002,0.9,1.0,2023-03-22_12h52.27.619,stress,2023.1.0,59.883502633903866,
2,4,0,1,3,5,4,6,0,6,3,3,1,1,0,1,0,77,77,77,left,1,0.7586457999996128,None,,,,pil_001,002,0.9,1.0,2023-03-22_12h52.27.619,stress,2023.1.0,59.883502633903866,
4,1,3,0,5,2,4,5,6,3,0,3,1,0,0,1,0,78,78,78,left,1,1.3277602999996816,None,,,,pil_001,002,0.9,1.0,2023-03-22_12h52.27.619,stress,2023.1.0,59.883502633903866,
4,3,5,0,1,2,4,6,3,5,3,6,1,1,1,1,0,79,79,79,up,1,0.8521723000003476,space,1.9009507000000667,,,pil_001,002,0.9,1.0,2023-03-22_12h52.27.619,stress,2023.1.0,59.883502633903866,
1,4,5,3,2,0,4,6,0,0,3,3,1,1,1,1,0,80,80,80,up,1,1.1074613000000681,None,,,,pil_001,002,0.9,1.0,2023-03-22_12h52.27.619,stress,2023.1.0,59.883502633903866,
2,0,5,4,3,1,4,5,6,6,0,0,1,0,0,1,0,81,81,81,left,1,0.7067896999997174,None,,,,pil_001,002,0.9,1.0,2023-03-22_12h52.27.619,stress,2023.1.0,59.883502633903866,
0,3,5,1,2,4,4,0,3,3,5,0,1,1,0,1,0,82,82,82,left,1,1.2143028999998933,None,,,,pil_001,002,0.9,1.0,2023-03-22_12h52.27.619,stress,2023.1.0,59.883502633903866,
4,5,0,2,3,1,4,3,0,0,6,5,1,0,1,1,0,83,83,83,up,1,0.8808448999998291,None,,,,pil_001,002,0.9,1.0,2023-03-22_12h52.27.619,stress,2023.1.0,59.883502633903866,
0,4,2,3,1,5,4,5,0,6,6,3,1,1,0,1,0,84,84,84,left,1,0.7826446999997643,None,,,,pil_001,002,0.9,1.0,2023-03-22_12h52.27.619,stress,2023.1.0,59.883502633903866,
0,3,5,4,2,1,4,5,6,0,5,3,1,0,0,1,0,85,85,85,left,1,1.604932600000211,None,,,,pil_001,002,0.9,1.0,2023-03-22_12h52.27.619,stress,2023.1.0,59.883502633903866,
0,3,2,4,1,5,4,3,5,0,6,5,1,0,1,1,0,86,86,86,up,1,3.1107750000001033,None,,,,pil_001,002,0.9,1.0,2023-03-22_12h52.27.619,stress,2023.1.0,59.883502633903866,
2,3,4,5,1,0,4,6,0,3,0,3,1,0,1,1,0,87,87,87,up,1,0.5634508000002825,None,,,,pil_001,002,0.9,1.0,2023-03-22_12h52.27.619,stress,2023.1.0,59.883502633903866,
2,5,1,3,0,4,4,0,3,5,0,3,1,0,0,1,0,88,88,88,left,1,0.7665753000001132,None,,,,pil_001,002,0.9,1.0,2023-03-22_12h52.27.619,stress,2023.1.0,59.883502633903866,
0,4,1,5,3,2,4,0,3,5,5,3,1,1,1,1,0,89,89,89,up,1,0.7925169999998616,None,,,,pil_001,002,0.9,1.0,2023-03-22_12h52.27.619,stress,2023.1.0,59.883502633903866,
2,4,1,5,0,3,4,3,6,0,3,5,1,0,0,1,0,90,90,90,left,1,0.5859799999998359,None,,,,pil_001,002,0.9,1.0,2023-03-22_12h52.27.619,stress,2023.1.0,59.883502633903866,
5,2,1,3,0,4,4,3,3,5,5,0,1,1,1,1,0,91,91,91,up,1,0.7464161999996577,None,,,,pil_001,002,0.9,1.0,2023-03-22_12h52.27.619,stress,2023.1.0,59.883502633903866,
1,3,4,2,5,0,4,5,3,0,0,6,1,0,0,1,0,92,92,92,left,1,1.008777199999713,None,,,,pil_001,002,0.9,1.0,2023-03-22_12h52.27.619,stress,2023.1.0,59.883502633903866,
3,5,2,4,0,1,4,5,3,6,0,5,1,1,1,1,0,93,93,93,up,1,0.5599932000004628,None,,,,pil_001,002,0.9,1.0,2023-03-22_12h52.27.619,stress,2023.1.0,59.883502633903866,
5,2,1,4,0,3,4,0,6,3,0,5,0,1,0,1,0,94,94,94,left,1,0.5101139000007606,None,,,,pil_001,002,0.9,1.0,2023-03-22_12h52.27.619,stress,2023.1.0,59.883502633903866,
3,2,1,0,5,4,4,5,3,6,5,3,1,0,1,1,0,95,95,95,left,0,0.6247540000003937,None,,,,pil_001,002,0.9,1.0,2023-03-22_12h52.27.619,stress,2023.1.0,59.883502633903866,
0,1,3,5,2,4,4,3,6,5,0,5,1,1,1,1,0,96,96,96,up,1,1.5295998999999938,None,,,,pil_001,002,0.9,1.0,2023-03-22_12h52.27.619,stress,2023.1.0,59.883502633903866,
5,2,1,0,4,3,4,3,3,5,6,0,1,0,1,1,0,97,97,97,up,1,1.7051068999999188,None,,,,pil_001,002,0.9,1.0,2023-03-22_12h52.27.619,stress,2023.1.0,59.883502633903866,
1,4,3,0,2,5,4,6,3,0,6,5,1,0,0,1,0,98,98,98,left,1,1.0737103000001298,None,,,,pil_001,002,0.9,1.0,2023-03-22_12h52.27.619,stress,2023.1.0,59.883502633903866,
4,0,2,3,5,1,4,3,3,0,5,6,1,1,0,1,0,99,99,99,left,1,1.5842396999996708,None,,,,pil_001,002,0.9,1.0,2023-03-22_12h52.27.619,stress,2023.1.0,59.883502633903866,
3,4,5,2,1,0,4,5,3,3,5,6,1,1,0,1,0,100,100,100,left,1,1.1593699000004563,None,,,,pil_001,002,0.9,1.0,2023-03-22_12h52.27.619,stress,2023.1.0,59.883502633903866,
4,5,3,2,0,1,4,6,0,6,5,0,0,0,1,1,0,101,101,101,up,1,1.645192500000121,None,,,,pil_001,002,0.9,1.0,2023-03-22_12h52.27.619,stress,2023.1.0,59.883502633903866,
3,2,4,0,5,1,4,0,5,6,0,6,0,0,1,1,0,102,102,102,up,1,2.185824400000456,None,,,,pil_001,002,0.9,1.0,2023-03-22_12h52.27.619,stress,2023.1.0,59.883502633903866,
0,2,1,3,4,5,4,6,0,5,0,5,1,1,0,1,0,103,103,103,left,1,1.2088597000001755,None,,,,pil_001,002,0.9,1.0,2023-03-22_12h52.27.619,stress,2023.1.0,59.883502633903866,
2,0,3,4,1,5,4,5,3,0,0,3,1,1,0,1,0,104,104,104,left,1,0.9959613999999419,None,,,,pil_001,002,0.9,1.0,2023-03-22_12h52.27.619,stress,2023.1.0,59.883502633903866,
3,2,0,4,5,1,4,5,3,5,3,6,1,1,0,1,0,105,105,105,left,1,1.89070829999946,None,,,,pil_001,002,0.9,1.0,2023-03-22_12h52.27.619,stress,2023.1.0,59.883502633903866,
2,4,3,1,5,0,4,3,0,5,0,3,1,0,1,1,0,106,106,106,up,1,0.8737842000000455,None,,,,pil_001,002,0.9,1.0,2023-03-22_12h52.27.619,stress,2023.1.0,59.883502633903866,
1,0,4,3,5,2,4,3,6,0,0,6,1,1,0,1,0,107,107,107,up,0,1.5064600999994582,None,,,,pil_001,002,0.9,1.0,2023-03-22_12h52.27.619,stress,2023.1.0,59.883502633903866,
1,0,2,5,4,3,4,0,0,6,5,3,1,1,0,1,0,108,108,108,left,1,1.1529020000007222,None,,,,pil_001,002,0.9,1.0,2023-03-22_12h52.27.619,stress,2023.1.0,59.883502633903866,
5,3,2,4,0,1,4,6,6,5,5,3,1,1,0,1,0,109,109,109,left,1,1.3219546000000264,None,,,,pil_001,002,0.9,1.0,2023-03-22_12h52.27.619,stress,2023.1.0,59.883502633903866,
2,5,3,0,4,1,4,6,3,5,0,6,1,1,0,1,0,110,110,110,left,1,0.6124213000002783,None,,,,pil_001,002,0.9,1.0,2023-03-22_12h52.27.619,stress,2023.1.0,59.883502633903866,
5,0,1,3,2,4,4,5,0,6,6,3,1,0,0,1,0,111,111,111,left,1,0.5925055999996403,None,,,,pil_001,002,0.9,1.0,2023-03-22_12h52.27.619,stress,2023.1.0,59.883502633903866,
2,4,1,3,0,5,4,6,6,5,5,0,0,1,0,1,0,112,112,112,left,1,0.6008294000002934,None,,,,pil_001,002,0.9,1.0,2023-03-22_12h52.27.619,stress,2023.1.0,59.883502633903866,
5,3,1,0,2,4,4,5,6,0,3,5,1,0,0,1,0,113,113,113,left,1,0.6789871000000858,None,,,,pil_001,002,0.9,1.0,2023-03-22_12h52.27.619,stress,2023.1.0,59.883502633903866,
1,2,0,5,3,4,4,0,3,5,0,6,1,0,1,1,0,114,114,114,up,1,1.3417713000008007,None,,,,pil_001,002,0.9,1.0,2023-03-22_12h52.27.619,stress,2023.1.0,59.883502633903866,
0,4,2,5,3,1,4,6,5,6,5,0,1,0,0,1,0,115,115,115,left,1,1.1206557999994402,None,,,,pil_001,002,0.9,1.0,2023-03-22_12h52.27.619,stress,2023.1.0,59.883502633903866,
3,5,4,1,2,0,4,5,6,0,3,3,1,1,1,1,0,116,116,116,up,1,0.8398723999998765,None,,,,pil_001,002,0.9,1.0,2023-03-22_12h52.27.619,stress,2023.1.0,59.883502633903866,
0,5,2,1,3,4,4,3,6,6,0,3,0,1,0,1,0,117,117,117,left,1,1.2173437999999805,None,,,,pil_001,002,0.9,1.0,2023-03-22_12h52.27.619,stress,2023.1.0,59.883502633903866,
5,2,3,0,1,4,4,6,5,0,6,3,1,1,1,1,0,118,118,118,up,1,0.5972860000001674,None,,,,pil_001,002,0.9,1.0,2023-03-22_12h52.27.619,stress,2023.1.0,59.883502633903866,
5,0,4,2,3,1,4,6,5,6,3,0,1,0,1,1,0,119,119,119,up,1,0.5680101999996623,space,1.4438723000002938,,,pil_001,002,0.9,1.0,2023-03-22_12h52.27.619,stress,2023.1.0,59.883502633903866,
4,2,5,1,0,3,4,3,5,0,5,6,1,1,1,1,0,120,120,120,up,1,1.029963100000714,None,,,,pil_001,002,0.9,1.0,2023-03-22_12h52.27.619,stress,2023.1.0,59.883502633903866,
4,0,1,3,2,5,4,3,0,6,3,0,1,1,0,1,0,121,121,121,left,1,0.9841427000001204,None,,,,pil_001,002,0.9,1.0,2023-03-22_12h52.27.619,stress,2023.1.0,59.883502633903866,
2,3,4,0,5,1,4,3,5,6,6,3,1,1,1,1,0,122,122,122,up,1,0.6457473000000391,None,,,,pil_001,002,0.9,1.0,2023-03-22_12h52.27.619,stress,2023.1.0,59.883502633903866,
0,2,3,1,5,4,4,3,5,3,6,0,0,1,1,1,0,123,123,123,up,1,0.6231091999998171,None,,,,pil_001,002,0.9,1.0,2023-03-22_12h52.27.619,stress,2023.1.0,59.883502633903866,
4,3,2,1,5,0,4,3,6,6,0,5,1,1,0,1,0,124,124,124,up,0,0.6529313000000911,None,,,,pil_001,002,0.9,1.0,2023-03-22_12h52.27.619,stress,2023.1.0,59.883502633903866,
0,4,5,2,3,1,4,3,3,6,5,5,1,0,1,1,0,125,125,125,up,1,0.5777526000001671,None,,,,pil_001,002,0.9,1.0,2023-03-22_12h52.27.619,stress,2023.1.0,59.883502633903866,
1,0,3,4,2,5,4,6,3,6,3,5,0,1,0,1,0,126,126,126,left,1,1.731027300000278,None,,,,pil_001,002,0.9,1.0,2023-03-22_12h52.27.619,stress,2023.1.0,59.883502633903866,
0,5,2,1,3,4,4,5,0,0,3,5,0,0,0,1,0,127,127,127,left,1,0.8776599999991959,None,,,,pil_001,002,0.9,1.0,2023-03-22_12h52.27.619,stress,2023.1.0,59.883502633903866,
4,5,0,1,3,2,4,6,5,0,3,3,1,0,1,1,0,128,128,128,up,1,0.754061499999807,None,,,,pil_001,002,0.9,1.0,2023-03-22_12h52.27.619,stress,2023.1.0,59.883502633903866,
5,0,1,4,2,3,4,3,0,6,6,0,1,0,1,1,0,129,129,129,up,1,0.6008904999998776,None,,,,pil_001,002,0.9,1.0,2023-03-22_12h52.27.619,stress,2023.1.0,59.883502633903866,
1,3,0,2,5,4,4,6,0,3,5,5,1,1,1,1,0,130,130,130,up,1,0.8469315000002098,None,,,,pil_001,002,0.9,1.0,2023-03-22_12h52.27.619,stress,2023.1.0,59.883502633903866,
0,2,5,4,3,1,4,3,3,5,6,0,1,1,1,1,0,131,131,131,up,1,0.6624735000004875,None,,,,pil_001,002,0.9,1.0,2023-03-22_12h52.27.619,stress,2023.1.0,59.883502633903866,
3,1,0,5,2,4,4,0,5,5,3,6,1,1,1,1,0,132,132,132,up,1,0.5870907000007719,None,,,,pil_001,002,0.9,1.0,2023-03-22_12h52.27.619,stress,2023.1.0,59.883502633903866,
2,0,1,4,3,5,4,5,6,0,0,5,1,1,1,1,0,133,133,133,up,1,0.5543259999994916,None,,,,pil_001,002,0.9,1.0,2023-03-22_12h52.27.619,stress,2023.1.0,59.883502633903866,
2,4,3,1,5,0,4,5,3,6,6,5,1,0,0,1,0,134,134,134,left,1,2.0864191999999093,None,,,,pil_001,002,0.9,1.0,2023-03-22_12h52.27.619,stress,2023.1.0,59.883502633903866,
3,0,5,4,1,2,4,0,6,0,3,3,0,1,1,1,0,135,135,135,up,1,0.7062191999993956,None,,,,pil_001,002,0.9,1.0,2023-03-22_12h52.27.619,stress,2023.1.0,59.883502633903866,
5,1,2,3,4,0,4,5,3,6,0,6,1,0,0,1,0,136,136,136,left,1,1.5873689000000013,None,,,,pil_001,002,0.9,1.0,2023-03-22_12h52.27.619,stress,2023.1.0,59.883502633903866,
3,2,1,4,5,0,4,5,0,5,6,3,1,0,0,1,0,137,137,137,left,1,0.7190623000005871,None,,,,pil_001,002,0.9,1.0,2023-03-22_12h52.27.619,stress,2023.1.0,59.883502633903866,
0,3,4,1,5,2,4,6,6,5,3,0,1,0,0,1,0,138,138,138,left,1,1.4798448999999891,None,,,,pil_001,002,0.9,1.0,2023-03-22_12h52.27.619,stress,2023.1.0,59.883502633903866,
5,0,3,2,4,1,4,3,0,3,0,6,1,1,1,1,0,139,139,139,up,1,0.8155312999997477,None,,,,pil_001,002,0.9,1.0,2023-03-22_12h52.27.619,stress,2023.1.0,59.883502633903866,
2,5,3,4,0,1,4,5,0,0,6,3,1,1,0,1,0,140,140,140,left,1,0.7204546000002665,None,,,,pil_001,002,0.9,1.0,2023-03-22_12h52.27.619,stress,2023.1.0,59.883502633903866,
1,5,0,2,3,4,4,6,6,5,0,3,1,0,1,1,0,141,141,141,up,1,1.0817436999996062,None,,,,pil_001,002,0.9,1.0,2023-03-22_12h52.27.619,stress,2023.1.0,59.883502633903866,
0,2,1,5,4,3,4,3,6,0,5,3,1,1,0,1,0,142,142,142,left,1,1.1424836999995023,None,,,,pil_001,002,0.9,1.0,2023-03-22_12h52.27.619,stress,2023.1.0,59.883502633903866,
3,4,1,0,2,5,4,3,0,0,6,6,1,0,0,1,0,143,143,143,left,1,0.47595149999960995,None,,,,pil_001,002,0.9,1.0,2023-03-22_12h52.27.619,stress,2023.1.0,59.883502633903866,
2,3,1,0,4,5,4,5,0,5,3,6,1,0,0,1,0,144,144,144,left,1,1.8055902999994942,None,,,,pil_001,002,0.9,1.0,2023-03-22_12h52.27.619,stress,2023.1.0,59.883502633903866,
1,3,5,0,4,2,4,6,5,0,3,6,1,0,1,1,0,145,145,145,up,1,0.8570803999991767,None,,,,pil_001,002,0.9,1.0,2023-03-22_12h52.27.619,stress,2023.1.0,59.883502633903866,
1,2,0,4,3,5,4,3,5,0,6,3,1,0,0,1,0,146,146,146,left,1,1.1166158000005453,None,,,,pil_001,002,0.9,1.0,2023-03-22_12h52.27.619,stress,2023.1.0,59.883502633903866,
4,0,5,1,2,3,4,5,0,3,6,3,1,1,0,1,0,147,147,147,left,1,1.298336300000301,None,,,,pil_001,002,0.9,1.0,2023-03-22_12h52.27.619,stress,2023.1.0,59.883502633903866,
4,0,3,5,1,2,4,6,0,3,5,3,1,0,0,1,0,148,148,148,left,1,1.239522400000169,None,,,,pil_001,002,0.9,1.0,2023-03-22_12h52.27.619,stress,2023.1.0,59.883502633903866,
0,3,2,5,4,1,4,3,3,6,5,5,1,0,1,1,0,149,149,149,up,1,1.2749629999998433,None,,,,pil_001,002,0.9,1.0,2023-03-22_12h52.27.619,stress,2023.1.0,59.883502633903866,
0,1,2,3,4,5,4,3,5,0,6,6,1,1,1,1,0,150,150,150,up,1,0.6947363999997833,None,,,,pil_001,002,0.9,1.0,2023-03-22_12h52.27.619,stress,2023.1.0,59.883502633903866,
2,0,5,3,1,4,4,0,3,5,6,6,1,1,1,1,0,151,151,151,up,1,0.7725196999999753,None,,,,pil_001,002,0.9,1.0,2023-03-22_12h52.27.619,stress,2023.1.0,59.883502633903866,
1,0,2,4,5,3,4,5,0,6,3,6,1,0,0,1,0,152,152,152,left,1,1.0083561000001282,None,,,,pil_001,002,0.9,1.0,2023-03-22_12h52.27.619,stress,2023.1.0,59.883502633903866,
2,0,1,5,3,4,4,5,6,6,0,5,1,1,1,1,0,153,153,153,up,1,0.6532478999997693,None,,,,pil_001,002,0.9,1.0,2023-03-22_12h52.27.619,stress,2023.1.0,59.883502633903866,
1,2,3,5,4,0,4,5,0,6,5,3,1,0,1,1,0,154,154,154,up,1,0.5785924000001614,None,,,,pil_001,002,0.9,1.0,2023-03-22_12h52.27.619,stress,2023.1.0,59.883502633903866,
5,3,2,4,0,1,4,0,0,3,6,3,1,1,0,1,0,155,155,155,left,1,1.0102960000003804,None,,,,pil_001,002,0.9,1.0,2023-03-22_12h52.27.619,stress,2023.1.0,59.883502633903866,
2,3,5,4,1,0,4,6,6,3,3,5,1,0,1,1,0,156,156,156,up,1,0.576102400000309,None,,,,pil_001,002,0.9,1.0,2023-03-22_12h52.27.619,stress,2023.1.0,59.883502633903866,
1,2,4,5,3,0,4,5,6,3,5,3,1,1,1,1,0,157,157,157,up,1,1.2092311999995218,None,,,,pil_001,002,0.9,1.0,2023-03-22_12h52.27.619,stress,2023.1.0,59.883502633903866,
3,5,4,2,1,0,4,6,3,6,0,3,1,1,1,1,0,158,158,158,up,1,0.8512522000000899,None,,,,pil_001,002,0.9,1.0,2023-03-22_12h52.27.619,stress,2023.1.0,59.883502633903866,
5,0,4,3,2,1,4,3,0,5,6,6,1,1,1,1,0,159,159,159,up,1,1.0672909000004438,space,2.160918700000366,,,pil_001,002,0.9,1.0,2023-03-22_12h52.27.619,stress,2023.1.0,59.883502633903866,
3,1,0,5,4,2,4,3,6,6,5,0,1,1,1,1,0,160,160,160,up,1,1.182739799999581,None,,,,pil_001,002,0.9,1.0,2023-03-22_12h52.27.619,stress,2023.1.0,59.883502633903866,
1,2,4,3,5,0,4,5,0,3,3,0,1,0,1,1,0,161,161,161,up,1,0.8460869999998977,None,,,,pil_001,002,0.9,1.0,2023-03-22_12h52.27.619,stress,2023.1.0,59.883502633903866,
4,0,1,3,2,5,4,6,5,0,0,3,1,1,0,1,0,162,162,162,left,1,0.774879200000214,None,,,,pil_001,002,0.9,1.0,2023-03-22_12h52.27.619,stress,2023.1.0,59.883502633903866,
1,3,2,0,4,5,4,3,5,3,5,0,0,0,1,1,0,163,163,163,up,1,1.007394899999781,None,,,,pil_001,002,0.9,1.0,2023-03-22_12h52.27.619,stress,2023.1.0,59.883502633903866,
3,1,5,0,2,4,4,3,0,6,5,5,1,0,0,1,0,164,164,164,left,1,0.6377671999998711,None,,,,pil_001,002,0.9,1.0,2023-03-22_12h52.27.619,stress,2023.1.0,59.883502633903866,
5,2,1,3,0,4,4,0,3,3,5,6,1,0,1,1,0,165,165,165,up,1,0.8630538000006709,None,,,,pil_001,002,0.9,1.0,2023-03-22_12h52.27.619,stress,2023.1.0,59.883502633903866,
5,1,2,3,0,4,4,6,6,5,3,5,1,1,0,1,0,166,166,166,left,1,1.4497344999999768,None,,,,pil_001,002,0.9,1.0,2023-03-22_12h52.27.619,stress,2023.1.0,59.883502633903866,
5,2,1,4,3,0,4,3,6,5,0,6,1,0,1,1,0,167,167,167,up,1,0.6323146999993696,None,,,,pil_001,002,0.9,1.0,2023-03-22_12h52.27.619,stress,2023.1.0,59.883502633903866,
1,2,0,4,5,3,4,0,5,0,3,6,1,1,0,1,0,168,168,168,left,1,1.0446950999994442,None,,,,pil_001,002,0.9,1.0,2023-03-22_12h52.27.619,stress,2023.1.0,59.883502633903866,
0,4,2,1,5,3,4,5,0,3,6,5,1,1,1,1,0,169,169,169,up,1,1.0742238000002544,None,,,,pil_001,002,0.9,1.0,2023-03-22_12h52.27.619,stress,2023.1.0,59.883502633903866,
2,0,4,5,1,3,4,3,0,6,3,0,1,0,0,1,0,170,170,170,left,1,0.5926740000004429,None,,,,pil_001,002,0.9,1.0,2023-03-22_12h52.27.619,stress,2023.1.0,59.883502633903866,
2,0,3,4,5,1,4,0,5,6,5,3,1,1,0,1,0,171,171,171,left,1,0.7172743999999511,None,,,,pil_001,002,0.9,1.0,2023-03-22_12h52.27.619,stress,2023.1.0,59.883502633903866,
2,3,1,0,5,4,4,0,5,0,3,6,1,1,1,1,0,172,172,172,up,1,0.5611810000000332,None,,,,pil_001,002,0.9,1.0,2023-03-22_12h52.27.619,stress,2023.1.0,59.883502633903866,
1,4,2,0,5,3,4,6,5,0,0,3,1,0,0,1,0,173,173,173,left,1,1.6497590999997556,None,,,,pil_001,002,0.9,1.0,2023-03-22_12h52.27.619,stress,2023.1.0,59.883502633903866,
2,3,5,1,0,4,4,3,6,3,5,0,1,0,1,1,0,174,174,174,up,1,0.8027530999997907,None,,,,pil_001,002,0.9,1.0,2023-03-22_12h52.27.619,stress,2023.1.0,59.883502633903866,
2,1,3,0,5,4,4,5,0,3,6,5,1,0,1,1,0,175,175,175,up,1,0.5349982000007003,None,,,,pil_001,002,0.9,1.0,2023-03-22_12h52.27.619,stress,2023.1.0,59.883502633903866,
5,0,4,1,2,3,4,0,6,5,0,3,1,0,0,1,0,176,176,176,left,1,1.1160706000000573,None,,,,pil_001,002,0.9,1.0,2023-03-22_12h52.27.619,stress,2023.1.0,59.883502633903866,
1,4,2,5,3,0,4,6,5,0,5,0,1,1,0,1,0,177,177,177,left,1,1.0519607000005635,None,,,,pil_001,002,0.9,1.0,2023-03-22_12h52.27.619,stress,2023.1.0,59.883502633903866,
3,4,0,5,2,1,4,6,3,0,5,5,1,0,1,1,0,178,178,178,up,1,1.326904700000341,None,,,,pil_001,002,0.9,1.0,2023-03-22_12h52.27.619,stress,2023.1.0,59.883502633903866,
5,2,4,1,0,3,4,5,0,6,5,6,1,1,0,1,0,179,179,179,left,1,1.2071341999999277,None,,,,pil_001,002,0.9,1.0,2023-03-22_12h52.27.619,stress,2023.1.0,59.883502633903866,
1,3,5,4,0,2,4,5,3,6,0,5,1,1,1,1,0,180,180,180,up,1,1.2022415000001274,None,,,,pil_001,002,0.9,1.0,2023-03-22_12h52.27.619,stress,2023.1.0,59.883502633903866,
4,5,2,3,1,0,4,5,0,3,6,6,1,0,0,1,0,181,181,181,left,1,0.7601918000000296,None,,,,pil_001,002,0.9,1.0,2023-03-22_12h52.27.619,stress,2023.1.0,59.883502633903866,
2,4,3,5,0,1,4,5,6,0,0,3,1,0,0,1,0,182,182,182,left,1,0.6440158000004885,None,,,,pil_001,002,0.9,1.0,2023-03-22_12h52.27.619,stress,2023.1.0,59.883502633903866,
0,2,4,3,1,5,4,5,3,0,5,3,1,1,1,1,0,183,183,183,up,1,1.3608455000003232,None,,,,pil_001,002,0.9,1.0,2023-03-22_12h52.27.619,stress,2023.1.0,59.883502633903866,
1,4,0,2,3,5,4,0,3,5,3,5,1,0,1,1,0,184,184,184,up,1,1.415901300000769,None,,,,pil_001,002,0.9,1.0,2023-03-22_12h52.27.619,stress,2023.1.0,59.883502633903866,
0,5,3,1,2,4,4,0,3,0,5,5,1,0,1,1,0,185,185,185,up,1,0.5804662000000462,None,,,,pil_001,002,0.9,1.0,2023-03-22_12h52.27.619,stress,2023.1.0,59.883502633903866,
1,3,5,4,2,0,4,0,3,5,0,3,1,1,1,1,0,186,186,186,up,1,1.1448237000004156,None,,,,pil_001,002,0.9,1.0,2023-03-22_12h52.27.619,stress,2023.1.0,59.883502633903866,
0,2,4,3,5,1,4,3,6,0,6,5,1,0,0,1,0,187,187,187,left,1,1.4311297000003833,None,,,,pil_001,002,0.9,1.0,2023-03-22_12h52.27.619,stress,2023.1.0,59.883502633903866,
1,5,2,0,4,3,4,5,0,5,0,3,1,1,0,1,0,188,188,188,left,1,0.8843281999997998,None,,,,pil_001,002,0.9,1.0,2023-03-22_12h52.27.619,stress,2023.1.0,59.883502633903866,
0,5,3,2,4,1,4,3,6,0,5,0,1,1,1,1,0,189,189,189,up,1,0.6237338999999338,None,,,,pil_001,002,0.9,1.0,2023-03-22_12h52.27.619,stress,2023.1.0,59.883502633903866,
2,1,5,4,0,3,4,6,5,3,0,6,1,0,1,1,0,190,190,190,up,1,0.5344154000003982,None,,,,pil_001,002,0.9,1.0,2023-03-22_12h52.27.619,stress,2023.1.0,59.883502633903866,
0,1,3,2,4,5,4,5,0,3,5,6,1,1,0,1,0,191,191,191,left,1,1.0630881999995836,None,,,,pil_001,002,0.9,1.0,2023-03-22_12h52.27.619,stress,2023.1.0,59.883502633903866,
3,2,0,4,5,1,4,3,6,0,3,5,1,1,0,1,0,192,192,192,left,1,0.9228713000002244,None,,,,pil_001,002,0.9,1.0,2023-03-22_12h52.27.619,stress,2023.1.0,59.883502633903866,
3,5,2,4,1,0,4,6,5,3,6,0,1,1,1,1,0,193,193,193,up,1,0.8801708000000872,None,,,,pil_001,002,0.9,1.0,2023-03-22_12h52.27.619,stress,2023.1.0,59.883502633903866,
1,4,2,5,3,0,4,6,0,3,0,6,1,0,1,1,0,194,194,194,up,1,0.8403268000001844,None,,,,pil_001,002,0.9,1.0,2023-03-22_12h52.27.619,stress,2023.1.0,59.883502633903866,
1,3,0,4,5,2,4,3,5,3,6,0,1,1,1,1,0,195,195,195,up,1,0.7232302000002164,None,,,,pil_001,002,0.9,1.0,2023-03-22_12h52.27.619,stress,2023.1.0,59.883502633903866,
5,0,4,2,1,3,4,3,6,5,0,5,1,0,0,1,0,196,196,196,left,1,1.4498514000006253,None,,,,pil_001,002,0.9,1.0,2023-03-22_12h52.27.619,stress,2023.1.0,59.883502633903866,
5,3,1,4,0,2,4,3,3,5,5,6,1,0,0,1,0,197,197,197,left,1,0.6965519000004861,None,,,,pil_001,002,0.9,1.0,2023-03-22_12h52.27.619,stress,2023.1.0,59.883502633903866,
1,4,3,0,2,5,4,3,3,0,5,6,0,0,0,1,0,198,198,198,left,1,0.9241547999999966,None,,,,pil_001,002,0.9,1.0,2023-03-22_12h52.27.619,stress,2023.1.0,59.883502633903866,
2,1,5,4,3,0,4,0,3,3,5,6,1,0,1,1,0,199,199,199,up,1,1.394897299999684,space,2.292258000000402,,,pil_001,002,0.9,1.0,2023-03-22_12h52.27.619,stress,2023.1.0,59.883502633903866,
4,0,5,1,2,3,4,6,5,0,0,5,1,0,1,1,0,200,200,200,left,0,0.6243925000007948,None,,,,pil_001,002,0.9,1.0,2023-03-22_12h52.27.619,stress,2023.1.0,59.883502633903866,
1,0,3,4,2,5,4,0,3,5,0,6,1,1,1,1,0,201,201,201,up,1,0.5751921000000948,None,,,,pil_001,002,0.9,1.0,2023-03-22_12h52.27.619,stress,2023.1.0,59.883502633903866,
0,5,1,4,3,2,4,3,5,3,6,6,1,1,0,1,0,202,202,202,left,1,2.3214057000004686,None,,,,pil_001,002,0.9,1.0,2023-03-22_12h52.27.619,stress,2023.1.0,59.883502633903866,
1,0,2,5,4,3,4,0,5,3,0,3,1,1,1,1,0,203,203,203,up,1,0.7052635999998529,None,,,,pil_001,002,0.9,1.0,2023-03-22_12h52.27.619,stress,2023.1.0,59.883502633903866,
0,3,1,5,4,2,4,0,3,5,6,0,1,0,1,1,0,204,204,204,up,1,0.6562139999996361,None,,,,pil_001,002,0.9,1.0,2023-03-22_12h52.27.619,stress,2023.1.0,59.883502633903866,
5,0,4,3,1,2,4,5,3,0,5,3,0,1,0,1,0,205,205,205,left,1,1.3556756000007226,None,,,,pil_001,002,0.9,1.0,2023-03-22_12h52.27.619,stress,2023.1.0,59.883502633903866,
5,3,4,0,1,2,4,6,6,0,5,3,1,1,1,1,0,206,206,206,up,1,0.5681042999995043,None,,,,pil_001,002,0.9,1.0,2023-03-22_12h52.27.619,stress,2023.1.0,59.883502633903866,
0,1,3,2,4,5,4,0,0,3,6,5,1,1,1,1,0,207,207,207,up,1,0.621180899999672,None,,,,pil_001,002,0.9,1.0,2023-03-22_12h52.27.619,stress,2023.1.0,59.883502633903866,
0,4,5,1,3,2,4,6,0,5,3,3,1,1,0,1,0,208,208,208,left,1,0.5982931999997163,None,,,,pil_001,002,0.9,1.0,2023-03-22_12h52.27.619,stress,2023.1.0,59.883502633903866,
0,1,4,5,3,2,4,3,0,5,6,0,1,1,0,1,0,209,209,209,left,1,1.83737149999979,None,,,,pil_001,002,0.9,1.0,2023-03-22_12h52.27.619,stress,2023.1.0,59.883502633903866,
5,1,4,3,0,2,4,0,3,5,6,5,1,0,1,1,0,210,210,210,up,1,0.7057858999996824,None,,,,pil_001,002,0.9,1.0,2023-03-22_12h52.27.619,stress,2023.1.0,59.883502633903866,
5,0,1,4,3,2,4,3,0,5,5,0,1,1,0,1,0,211,211,211,left,1,0.8172606999996788,None,,,,pil_001,002,0.9,1.0,2023-03-22_12h52.27.619,stress,2023.1.0,59.883502633903866,
4,2,3,5,1,0,4,0,3,3,5,6,1,1,0,1,0,212,212,212,left,1,1.2004611000002114,None,,,,pil_001,002,0.9,1.0,2023-03-22_12h52.27.619,stress,2023.1.0,59.883502633903866,
3,2,4,1,5,0,4,0,3,6,0,6,1,1,1,1,0,213,213,213,up,1,0.6583036000001812,None,,,,pil_001,002,0.9,1.0,2023-03-22_12h52.27.619,stress,2023.1.0,59.883502633903866,
2,4,5,1,0,3,4,3,0,3,5,0,1,1,1,1,0,214,214,214,up,1,0.5275136999998722,None,,,,pil_001,002,0.9,1.0,2023-03-22_12h52.27.619,stress,2023.1.0,59.883502633903866,
0,4,1,5,3,2,4,0,6,0,5,3,1,1,1,1,0,215,215,215,up,1,1.0305701000006593,None,,,,pil_001,002,0.9,1.0,2023-03-22_12h52.27.619,stress,2023.1.0,59.883502633903866,
4,3,5,1,0,2,4,3,0,0,5,6,1,0,0,1,0,216,216,216,left,1,1.1389494999993985,None,,,,pil_001,002,0.9,1.0,2023-03-22_12h52.27.619,stress,2023.1.0,59.883502633903866,
4,2,3,5,0,1,4,6,5,5,0,6,1,1,1,1,0,217,217,217,up,1,0.6029185999996116,None,,,,pil_001,002,0.9,1.0,2023-03-22_12h52.27.619,stress,2023.1.0,59.883502633903866,
5,3,2,1,0,4,4,3,0,6,3,5,1,0,0,1,0,218,218,218,left,1,1.0668624999998428,None,,,,pil_001,002,0.9,1.0,2023-03-22_12h52.27.619,stress,2023.1.0,59.883502633903866,
0,3,4,5,2,1,4,5,3,0,6,5,1,0,0,1,0,219,219,219,left,1,0.5552882000001773,None,,,,pil_001,002,0.9,1.0,2023-03-22_12h52.27.619,stress,2023.1.0,59.883502633903866,
3,0,4,1,2,5,4,3,5,5,6,0,1,1,0,1,0,220,220,220,left,1,0.8638039999996181,None,,,,pil_001,002,0.9,1.0,2023-03-22_12h52.27.619,stress,2023.1.0,59.883502633903866,
1,5,3,2,0,4,4,0,3,0,5,6,1,1,1,1,0,221,221,221,up,1,0.7923699000002671,None,,,,pil_001,002,0.9,1.0,2023-03-22_12h52.27.619,stress,2023.1.0,59.883502633903866,
0,3,2,1,5,4,4,3,0,0,5,3,1,1,1,1,0,222,222,222,up,1,0.5543735999999626,None,,,,pil_001,002,0.9,1.0,2023-03-22_12h52.27.619,stress,2023.1.0,59.883502633903866,
3,5,4,2,1,0,4,3,6,0,5,6,1,1,1,1,0,223,223,223,up,1,0.8773167999997895,None,,,,pil_001,002,0.9,1.0,2023-03-22_12h52.27.619,stress,2023.1.0,59.883502633903866,
4,5,0,2,1,3,4,5,0,3,3,6,1,0,0,1,0,224,224,224,left,1,0.998389500000485,None,,,,pil_001,002,0.9,1.0,2023-03-22_12h52.27.619,stress,2023.1.0,59.883502633903866,
2,0,1,3,5,4,4,6,3,0,5,5,1,0,0,1,0,225,225,225,left,1,0.6451537000002645,None,,,,pil_001,002,0.9,1.0,2023-03-22_12h52.27.619,stress,2023.1.0,59.883502633903866,
1,5,4,0,2,3,4,6,5,5,3,0,1,0,1,1,0,226,226,226,up,1,0.7835444000002099,None,,,,pil_001,002,0.9,1.0,2023-03-22_12h52.27.619,stress,2023.1.0,59.883502633903866,
4,3,1,5,0,2,4,6,0,3,6,5,1,1,1,1,0,227,227,227,left,0,0.7360253000006196,None,,,,pil_001,002,0.9,1.0,2023-03-22_12h52.27.619,stress,2023.1.0,59.883502633903866,
3,5,2,0,4,1,4,3,6,5,0,3,1,1,0,1,0,228,228,228,left,1,0.5785382000003665,None,,,,pil_001,002,0.9,1.0,2023-03-22_12h52.27.619,stress,2023.1.0,59.883502633903866,
0,3,4,2,1,5,4,3,3,6,5,6,1,0,0,1,0,229,229,229,left,1,0.9972772999999506,None,,,,pil_001,002,0.9,1.0,2023-03-22_12h52.27.619,stress,2023.1.0,59.883502633903866,
5,0,2,1,4,3,4,0,6,5,5,3,1,1,1,1,0,230,230,230,up,1,0.8989003000006051,None,,,,pil_001,002,0.9,1.0,2023-03-22_12h52.27.619,stress,2023.1.0,59.883502633903866,
2,0,4,3,1,5,4,6,3,0,6,3,1,0,1,1,0,231,231,231,up,1,0.890336199999183,None,,,,pil_001,002,0.9,1.0,2023-03-22_12h52.27.619,stress,2023.1.0,59.883502633903866,
2,4,5,1,3,0,4,0,3,3,5,6,1,1,1,1,0,232,232,232,up,1,0.6803338999998232,None,,,,pil_001,002,0.9,1.0,2023-03-22_12h52.27.619,stress,2023.1.0,59.883502633903866,
4,5,3,1,2,0,4,5,0,3,3,5,0,0,0,1,0,233,233,233,left,1,0.695328700000573,None,,,,pil_001,002,0.9,1.0,2023-03-22_12h52.27.619,stress,2023.1.0,59.883502633903866,
1,0,2,4,3,5,4,0,3,3,0,5,1,1,1,1,0,234,234,234,up,1,0.8068545999994967,None,,,,pil_001,002,0.9,1.0,2023-03-22_12h52.27.619,stress,2023.1.0,59.883502633903866,
2,5,0,4,1,3,4,5,5,0,6,0,1,1,1,1,0,235,235,235,up,1,0.6307919999999285,None,,,,pil_001,002,0.9,1.0,2023-03-22_12h52.27.619,stress,2023.1.0,59.883502633903866,
1,0,3,4,5,2,4,6,5,0,3,0,1,1,0,1,0,236,236,236,left,1,0.8574666000004072,None,,,,pil_001,002,0.9,1.0,2023-03-22_12h52.27.619,stress,2023.1.0,59.883502633903866,
0,1,2,5,4,3,4,0,6,0,3,6,1,0,0,1,0,237,237,237,left,1,0.7640043000001242,None,,,,pil_001,002,0.9,1.0,2023-03-22_12h52.27.619,stress,2023.1.0,59.883502633903866,
3,5,2,1,0,4,4,0,6,6,3,5,1,1,1,1,0,238,238,238,up,1,1.0224733999993987,None,,,,pil_001,002,0.9,1.0,2023-03-22_12h52.27.619,stress,2023.1.0,59.883502633903866,
3,1,5,2,4,0,4,0,3,6,0,6,1,0,0,1,0,239,239,239,left,1,0.6843345000006593,space,2.037443500000336,,,pil_001,002,0.9,1.0,2023-03-22_12h52.27.619,stress,2023.1.0,59.883502633903866,
2,5,3,1,4,0,4,6,0,0,3,6,1,0,1,1,0,240,240,240,up,1,0.45346150000023044,None,,,,pil_001,002,0.9,1.0,2023-03-22_12h52.27.619,stress,2023.1.0,59.883502633903866,
4,1,5,2,0,3,4,5,5,6,3,0,1,0,0,1,0,241,241,241,left,1,1.5402272999999695,None,,,,pil_001,002,0.9,1.0,2023-03-22_12h52.27.619,stress,2023.1.0,59.883502633903866,
2,1,3,4,5,0,4,0,5,6,0,5,1,1,0,1,0,242,242,242,left,1,0.6139696000000185,None,,,,pil_001,002,0.9,1.0,2023-03-22_12h52.27.619,stress,2023.1.0,59.883502633903866,
0,5,4,2,1,3,4,0,6,3,3,5,1,1,1,1,0,243,243,243,up,1,1.0807397999997193,None,,,,pil_001,002,0.9,1.0,2023-03-22_12h52.27.619,stress,2023.1.0,59.883502633903866,
3,1,0,5,4,2,4,3,6,0,3,5,1,0,1,1,0,244,244,244,up,1,0.88414929999999,None,,,,pil_001,002,0.9,1.0,2023-03-22_12h52.27.619,stress,2023.1.0,59.883502633903866,
3,1,4,2,5,0,4,6,5,6,0,3,1,0,1,1,0,245,245,245,left,0,0.6285767999997915,None,,,,pil_001,002,0.9,1.0,2023-03-22_12h52.27.619,stress,2023.1.0,59.883502633903866,
1,3,4,0,2,5,4,6,0,6,3,5,1,1,1,1,0,246,246,246,up,1,0.5961293999998816,None,,,,pil_001,002,0.9,1.0,2023-03-22_12h52.27.619,stress,2023.1.0,59.883502633903866,
5,2,3,0,4,1,4,3,3,5,0,0,1,0,1,1,0,247,247,247,up,1,0.7765071000003445,None,,,,pil_001,002,0.9,1.0,2023-03-22_12h52.27.619,stress,2023.1.0,59.883502633903866,
1,3,4,0,5,2,4,6,5,0,0,3,1,0,1,1,0,248,248,248,up,1,0.6485970000003363,None,,,,pil_001,002,0.9,1.0,2023-03-22_12h52.27.619,stress,2023.1.0,59.883502633903866,
5,2,4,3,1,0,4,5,6,0,5,3,1,1,1,1,0,249,249,249,up,1,0.5565843999993376,None,,,,pil_001,002,0.9,1.0,2023-03-22_12h52.27.619,stress,2023.1.0,59.883502633903866,
0,1,2,4,5,3,4,5,0,6,3,3,1,0,1,1,0,250,250,250,up,1,0.496026200000415,None,,,,pil_001,002,0.9,1.0,2023-03-22_12h52.27.619,stress,2023.1.0,59.883502633903866,
5,1,2,4,0,3,4,0,0,5,5,6,1,0,1,1,0,251,251,251,up,1,0.7827820000002248,None,,,,pil_001,002,0.9,1.0,2023-03-22_12h52.27.619,stress,2023.1.0,59.883502633903866,
0,4,1,5,3,2,4,5,6,5,3,6,1,0,1,1,0,252,252,252,up,1,0.5346024000000398,None,,,,pil_001,002,0.9,1.0,2023-03-22_12h52.27.619,stress,2023.1.0,59.883502633903866,
1,4,3,5,2,0,4,0,5,5,6,0,1,1,0,1,0,253,253,253,left,1,2.3726306999997178,None,,,,pil_001,002,0.9,1.0,2023-03-22_12h52.27.619,stress,2023.1.0,59.883502633903866,
1,4,3,2,0,5,4,5,3,3,6,5,1,1,1,1,0,254,254,254,up,1,1.142703000000438,None,,,,pil_001,002,0.9,1.0,2023-03-22_12h52.27.619,stress,2023.1.0,59.883502633903866,
2,5,0,3,4,1,4,3,5,0,6,5,1,0,0,1,0,255,255,255,left,1,0.825170099999923,None,,,,pil_001,002,0.9,1.0,2023-03-22_12h52.27.619,stress,2023.1.0,59.883502633903866,
4,2,1,5,3,0,4,5,6,3,0,6,1,0,0,1,0,256,256,256,left,1,1.555852300000879,None,,,,pil_001,002,0.9,1.0,2023-03-22_12h52.27.619,stress,2023.1.0,59.883502633903866,
2,1,5,3,4,0,4,5,0,6,5,6,1,0,0,1,0,257,257,257,left,1,0.5090480999997453,None,,,,pil_001,002,0.9,1.0,2023-03-22_12h52.27.619,stress,2023.1.0,59.883502633903866,
4,1,2,5,0,3,4,3,0,6,6,5,1,0,1,1,0,258,258,258,up,1,1.174303400000099,None,,,,pil_001,002,0.9,1.0,2023-03-22_12h52.27.619,stress,2023.1.0,59.883502633903866,
5,2,3,4,0,1,4,6,5,0,6,3,1,0,1,1,0,259,259,259,up,1,0.7775464999995165,None,,,,pil_001,002,0.9,1.0,2023-03-22_12h52.27.619,stress,2023.1.0,59.883502633903866,
1,0,3,5,4,2,4,3,0,0,6,3,1,0,1,1,0,260,260,260,up,1,0.598565399999643,None,,,,pil_001,002,0.9,1.0,2023-03-22_12h52.27.619,stress,2023.1.0,59.883502633903866,
2,0,3,4,1,5,4,6,0,5,0,3,1,0,0,1,0,261,261,261,left,1,0.5770795999997063,None,,,,pil_001,002,0.9,1.0,2023-03-22_12h52.27.619,stress,2023.1.0,59.883502633903866,
2,5,4,3,1,0,4,0,6,0,3,5,1,1,0,1,0,262,262,262,left,1,0.5828684999996767,None,,,,pil_001,002,0.9,1.0,2023-03-22_12h52.27.619,stress,2023.1.0,59.883502633903866,
0,1,2,3,4,5,4,0,5,3,6,6,1,0,0,1,0,263,263,263,left,1,0.878314099999443,None,,,,pil_001,002,0.9,1.0,2023-03-22_12h52.27.619,stress,2023.1.0,59.883502633903866,
3,0,4,2,5,1,4,3,3,0,0,6,1,0,1,1,0,264,264,264,up,1,1.6189834000006158,None,,,,pil_001,002,0.9,1.0,2023-03-22_12h52.27.619,stress,2023.1.0,59.883502633903866,
1,5,3,2,0,4,4,6,6,0,3,3,1,1,0,1,0,265,265,265,left,1,2.5957280000002356,None,,,,pil_001,002,0.9,1.0,2023-03-22_12h52.27.619,stress,2023.1.0,59.883502633903866,
4,1,3,2,5,0,4,3,6,5,0,5,1,1,1,1,0,266,266,266,up,1,0.6438363999996,None,,,,pil_001,002,0.9,1.0,2023-03-22_12h52.27.619,stress,2023.1.0,59.883502633903866,
0,1,3,5,4,2,4,0,3,6,3,5,1,0,0,1,0,267,267,267,left,1,1.1247556000007535,None,,,,pil_001,002,0.9,1.0,2023-03-22_12h52.27.619,stress,2023.1.0,59.883502633903866,
0,1,4,2,5,3,4,6,0,3,6,3,0,1,1,1,0,268,268,268,up,1,0.5951984000002994,None,,,,pil_001,002,0.9,1.0,2023-03-22_12h52.27.619,stress,2023.1.0,59.883502633903866,
3,2,5,1,4,0,4,5,6,0,3,3,1,1,0,1,0,269,269,269,left,1,1.149379499999668,None,,,,pil_001,002,0.9,1.0,2023-03-22_12h52.27.619,stress,2023.1.0,59.883502633903866,
4,3,1,5,2,0,4,3,0,3,6,6,1,1,0,1,0,270,270,270,left,1,0.6933640999995987,None,,,,pil_001,002,0.9,1.0,2023-03-22_12h52.27.619,stress,2023.1.0,59.883502633903866,
0,2,3,4,1,5,4,6,3,3,0,0,1,0,0,1,0,271,271,271,left,1,0.5695197000004555,None,,,,pil_001,002,0.9,1.0,2023-03-22_12h52.27.619,stress,2023.1.0,59.883502633903866,
2,5,0,1,4,3,4,0,0,3,5,6,1,1,1,1,0,272,272,272,up,1,0.6375588000000789,None,,,,pil_001,002,0.9,1.0,2023-03-22_12h52.27.619,stress,2023.1.0,59.883502633903866,
0,4,3,2,5,1,4,0,0,3,5,3,1,0,1,1,0,273,273,273,up,1,1.622569599999224,None,,,,pil_001,002,0.9,1.0,2023-03-22_12h52.27.619,stress,2023.1.0,59.883502633903866,
0,2,3,1,5,4,4,0,6,0,5,5,1,1,0,1,0,274,274,274,left,1,0.8328965999999127,None,,,,pil_001,002,0.9,1.0,2023-03-22_12h52.27.619,stress,2023.1.0,59.883502633903866,
1,3,5,2,0,4,4,0,3,5,6,3,1,0,0,1,0,275,275,275,left,1,1.0569473000005019,None,,,,pil_001,002,0.9,1.0,2023-03-22_12h52.27.619,stress,2023.1.0,59.883502633903866,
4,2,1,3,5,0,4,3,5,0,5,6,1,1,0,1,0,276,276,276,left,1,1.1195890000008148,None,,,,pil_001,002,0.9,1.0,2023-03-22_12h52.27.619,stress,2023.1.0,59.883502633903866,
1,3,2,0,5,4,4,5,3,6,0,3,1,0,0,1,0,277,277,277,left,1,0.9749452000005476,None,,,,pil_001,002,0.9,1.0,2023-03-22_12h52.27.619,stress,2023.1.0,59.883502633903866,
3,4,0,5,1,2,4,3,0,0,3,6,1,1,1,1,0,278,278,278,up,1,0.8640906000000541,None,,,,pil_001,002,0.9,1.0,2023-03-22_12h52.27.619,stress,2023.1.0,59.883502633903866,
1,5,2,4,3,0,4,0,5,6,3,3,1,0,1,1,0,279,279,279,up,1,1.0654255999997986,space,1.818290000000161,,,pil_001,002,0.9,1.0,2023-03-22_12h52.27.619,stress,2023.1.0,59.883502633903866,
2,4,0,5,3,1,4,0,3,5,6,3,1,1,0,1,0,280,280,280,left,1,0.7362586999997802,None,,,,pil_001,002,0.9,1.0,2023-03-22_12h52.27.619,stress,2023.1.0,59.883502633903866,
2,3,1,5,4,0,4,5,6,0,5,3,1,0,1,1,0,281,281,281,up,1,0.8373822000003202,None,,,,pil_001,002,0.9,1.0,2023-03-22_12h52.27.619,stress,2023.1.0,59.883502633903866,
4,1,5,2,3,0,4,6,5,0,0,6,1,0,1,1,0,282,282,282,up,1,0.743689899999481,None,,,,pil_001,002,0.9,1.0,2023-03-22_12h52.27.619,stress,2023.1.0,59.883502633903866,
5,3,2,4,0,1,4,5,0,6,5,6,1,0,1,1,0,283,283,283,up,1,1.2432177000000593,None,,,,pil_001,002,0.9,1.0,2023-03-22_12h52.27.619,stress,2023.1.0,59.883502633903866,
2,5,1,0,3,4,4,0,6,0,3,3,1,1,0,1,0,284,284,284,left,1,0.7028007999997499,None,,,,pil_001,002,0.9,1.0,2023-03-22_12h52.27.619,stress,2023.1.0,59.883502633903866,
0,2,3,1,4,5,4,3,6,0,0,5,1,0,0,1,0,285,285,285,left,1,0.8171470999996018,None,,,,pil_001,002,0.9,1.0,2023-03-22_12h52.27.619,stress,2023.1.0,59.883502633903866,
0,3,5,4,1,2,4,3,3,0,5,6,1,0,0,1,0,286,286,286,left,1,1.0866408000001684,None,,,,pil_001,002,0.9,1.0,2023-03-22_12h52.27.619,stress,2023.1.0,59.883502633903866,
3,5,2,0,4,1,4,6,3,0,3,5,1,1,1,1,0,287,287,287,up,1,0.9036016000000018,None,,,,pil_001,002,0.9,1.0,2023-03-22_12h52.27.619,stress,2023.1.0,59.883502633903866,
2,5,0,1,4,3,4,0,6,5,3,0,1,1,0,1,0,288,288,288,left,1,0.7114329000005455,None,,,,pil_001,002,0.9,1.0,2023-03-22_12h52.27.619,stress,2023.1.0,59.883502633903866,
2,0,1,4,5,3,4,3,0,5,6,3,0,1,1,1,0,289,289,289,up,1,0.7867949000001317,None,,,,pil_001,002,0.9,1.0,2023-03-22_12h52.27.619,stress,2023.1.0,59.883502633903866,
4,0,2,1,3,5,4,0,5,3,3,6,1,0,0,1,0,290,290,290,left,1,1.0152592000004006,None,,,,pil_001,002,0.9,1.0,2023-03-22_12h52.27.619,stress,2023.1.0,59.883502633903866,
1,3,5,4,2,0,4,5,0,0,6,3,1,1,1,1,0,291,291,291,up,1,0.8381411000000298,None,,,,pil_001,002,0.9,1.0,2023-03-22_12h52.27.619,stress,2023.1.0,59.883502633903866,
3,5,1,4,2,0,4,6,5,0,0,6,1,1,1,1,0,292,292,292,up,1,0.5471539000000121,None,,,,pil_001,002,0.9,1.0,2023-03-22_12h52.27.619,stress,2023.1.0,59.883502633903866,
2,4,3,1,5,0,4,6,3,5,6,3,1,1,0,1,0,293,293,293,up,0,0.6019397000000026,None,,,,pil_001,002,0.9,1.0,2023-03-22_12h52.27.619,stress,2023.1.0,59.883502633903866,
1,3,0,4,5,2,4,3,5,0,3,6,1,1,0,1,0,294,294,294,up,0,0.5812933000006524,None,,,,pil_001,002,0.9,1.0,2023-03-22_12h52.27.619,stress,2023.1.0,59.883502633903866,
1,4,3,5,2,0,4,6,3,5,5,6,1,1,0,1,0,295,295,295,left,1,0.6781488999995418,None,,,,pil_001,002,0.9,1.0,2023-03-22_12h52.27.619,stress,2023.1.0,59.883502633903866,
1,5,2,0,4,3,4,3,6,5,6,3,1,1,0,1,0,296,296,296,left,1,0.7167717000002085,None,,,,pil_001,002,0.9,1.0,2023-03-22_12h52.27.619,stress,2023.1.0,59.883502633903866,
5,2,1,0,4,3,4,5,3,5,6,6,1,0,0,1,0,297,297,297,left,1,0.8056165999996665,None,,,,pil_001,002,0.9,1.0,2023-03-22_12h52.27.619,stress,2023.1.0,59.883502633903866,
1,4,3,5,0,2,4,0,3,3,6,0,1,1,0,1,0,298,298,298,left,1,1.2188607999996748,None,,,,pil_001,002,0.9,1.0,2023-03-22_12h52.27.619,stress,2023.1.0,59.883502633903866,
0,5,3,1,2,4,4,3,5,6,0,3,1,0,1,1,0,299,299,299,up,1,0.8322915999997349,None,,,,pil_001,002,0.9,1.0,2023-03-22_12h52.27.619,stress,2023.1.0,59.883502633903866,
4,0,1,3,2,5,4,3,5,0,6,3,1,0,0,1,0,300,300,300,left,1,0.7417042999995829,left,0.0005979999996270635,,,pil_001,002,0.9,1.0,2023-03-22_12h52.27.619,stress,2023.1.0,59.883502633903866,
1,4,3,0,5,2,4,0,3,6,3,5,1,0,0,1,0,301,301,301,left,1,0.9433155000006082,None,,,,pil_001,002,0.9,1.0,2023-03-22_12h52.27.619,stress,2023.1.0,59.883502633903866,
1,3,0,4,5,2,4,5,6,3,6,0,1,0,0,1,0,302,302,302,left,1,0.5586786000003485,None,,,,pil_001,002,0.9,1.0,2023-03-22_12h52.27.619,stress,2023.1.0,59.883502633903866,
4,1,2,3,0,5,4,0,5,0,5,6,1,0,1,1,0,303,303,303,up,1,0.8404010000003836,None,,,,pil_001,002,0.9,1.0,2023-03-22_12h52.27.619,stress,2023.1.0,59.883502633903866,
0,4,5,3,1,2,4,5,6,3,6,3,1,1,1,1,0,304,304,304,up,1,0.6874008999993748,None,,,,pil_001,002,0.9,1.0,2023-03-22_12h52.27.619,stress,2023.1.0,59.883502633903866,
3,0,1,4,2,5,4,3,0,3,6,5,1,1,0,1,0,305,305,305,left,1,0.718834300000708,None,,,,pil_001,002,0.9,1.0,2023-03-22_12h52.27.619,stress,2023.1.0,59.883502633903866,
5,1,3,0,4,2,4,0,0,5,5,6,1,1,0,1,0,306,306,306,left,1,0.6205206000004182,None,,,,pil_001,002,0.9,1.0,2023-03-22_12h52.27.619,stress,2023.1.0,59.883502633903866,
0,2,3,1,4,5,4,6,0,5,6,3,1,1,1,1,0,307,307,307,up,1,0.8107030000001032,None,,,,pil_001,002,0.9,1.0,2023-03-22_12h52.27.619,stress,2023.1.0,59.883502633903866,
3,0,2,4,5,1,4,5,5,6,0,3,1,1,0,1,0,308,308,308,left,1,0.6961013000000094,None,,,,pil_001,002,0.9,1.0,2023-03-22_12h52.27.619,stress,2023.1.0,59.883502633903866,
0,3,4,5,2,1,4,3,6,3,0,5,1,1,0,1,0,309,309,309,left,1,1.324194300000272,None,,,,pil_001,002,0.9,1.0,2023-03-22_12h52.27.619,stress,2023.1.0,59.883502633903866,
4,2,3,1,5,0,4,5,0,3,0,5,0,1,1,1,0,310,310,310,up,1,2.508002900000065,None,,,,pil_001,002,0.9,1.0,2023-03-22_12h52.27.619,stress,2023.1.0,59.883502633903866,
0,5,1,3,4,2,4,5,3,6,0,0,1,0,1,1,0,311,311,311,up,1,0.9113421000001836,None,,,,pil_001,002,0.9,1.0,2023-03-22_12h52.27.619,stress,2023.1.0,59.883502633903866,
5,2,4,0,3,1,4,3,3,0,6,5,1,0,0,1,0,312,312,312,left,1,1.086332400000174,None,,,,pil_001,002,0.9,1.0,2023-03-22_12h52.27.619,stress,2023.1.0,59.883502633903866,
3,4,2,0,5,1,4,3,3,5,6,0,1,1,0,1,0,313,313,313,left,1,1.80129450000004,None,,,,pil_001,002,0.9,1.0,2023-03-22_12h52.27.619,stress,2023.1.0,59.883502633903866,
0,5,2,4,3,1,4,0,6,0,6,3,1,0,0,1,0,314,314,314,left,1,0.7248949999993783,None,,,,pil_001,002,0.9,1.0,2023-03-22_12h52.27.619,stress,2023.1.0,59.883502633903866,
3,5,4,2,0,1,4,5,0,6,0,3,0,1,0,1,0,315,315,315,left,1,0.6183799999998882,None,,,,pil_001,002,0.9,1.0,2023-03-22_12h52.27.619,stress,2023.1.0,59.883502633903866,
5,0,3,4,1,2,4,3,0,5,5,6,1,0,1,1,0,316,316,316,up,1,1.0870035999996617,None,,,,pil_001,002,0.9,1.0,2023-03-22_12h52.27.619,stress,2023.1.0,59.883502633903866,
0,5,4,1,2,3,4,5,0,3,6,6,0,0,1,1,0,317,317,317,up,1,0.6057768000000578,None,,,,pil_001,002,0.9,1.0,2023-03-22_12h52.27.619,stress,2023.1.0,59.883502633903866,
2,0,3,1,4,5,4,5,3,0,6,6,0,1,0,1,0,318,318,318,left,1,1.2457383000000846,None,,,,pil_001,002,0.9,1.0,2023-03-22_12h52.27.619,stress,2023.1.0,59.883502633903866,
1,5,2,4,3,0,4,6,0,5,3,5,1,1,0,1,0,319,319,319,left,1,1.1004187999997157,space,2.8015144999999393,,,pil_001,002,0.9,1.0,2023-03-22_12h52.27.619,stress,2023.1.0,59.883502633903866,
5,2,3,0,1,4,4,5,3,0,6,3,0,0,0,1,0,320,320,320,left,1,0.7942967999997563,None,,,,pil_001,002,0.9,1.0,2023-03-22_12h52.27.619,stress,2023.1.0,59.883502633903866,
1,3,2,4,5,0,4,5,3,0,3,5,1,0,1,1,0,321,321,321,up,1,1.1651014000008217,None,,,,pil_001,002,0.9,1.0,2023-03-22_12h52.27.619,stress,2023.1.0,59.883502633903866,
1,3,2,5,4,0,4,0,5,3,3,6,1,0,1,1,0,322,322,322,up,1,0.7791490999998132,None,,,,pil_001,002,0.9,1.0,2023-03-22_12h52.27.619,stress,2023.1.0,59.883502633903866,
2,3,4,5,1,0,4,5,3,0,6,5,1,0,1,1,0,323,323,323,up,1,0.5707211999997526,None,,,,pil_001,002,0.9,1.0,2023-03-22_12h52.27.619,stress,2023.1.0,59.883502633903866,
2,4,5,0,1,3,4,6,3,0,6,3,1,0,0,1,0,324,324,324,left,1,0.7266411000000517,None,,,,pil_001,002,0.9,1.0,2023-03-22_12h52.27.619,stress,2023.1.0,59.883502633903866,
1,0,2,5,3,4,4,0,6,5,0,6,1,0,1,1,0,325,325,325,up,1,0.5371980999998414,None,,,,pil_001,002,0.9,1.0,2023-03-22_12h52.27.619,stress,2023.1.0,59.883502633903866,
2,5,1,3,4,0,4,0,5,3,0,6,1,0,0,1,0,326,326,326,left,1,0.509052000000338,None,,,,pil_001,002,0.9,1.0,2023-03-22_12h52.27.619,stress,2023.1.0,59.883502633903866,
0,1,5,3,4,2,4,6,5,0,3,3,1,1,0,1,0,327,327,327,left,1,1.2471220999996149,None,,,,pil_001,002,0.9,1.0,2023-03-22_12h52.27.619,stress,2023.1.0,59.883502633903866,
2,0,3,4,1,5,4,6,6,0,3,0,0,0,1,1,0,328,328,328,up,1,0.7081476999992447,None,,,,pil_001,002,0.9,1.0,2023-03-22_12h52.27.619,stress,2023.1.0,59.883502633903866,
1,0,5,3,4,2,4,6,3,0,6,3,1,1,0,1,0,329,329,329,left,1,1.1259266999995816,None,,,,pil_001,002,0.9,1.0,2023-03-22_12h52.27.619,stress,2023.1.0,59.883502633903866,
0,2,4,1,3,5,4,0,3,0,6,5,1,0,0,1,0,330,330,330,left,1,1.10563269999966,None,,,,pil_001,002,0.9,1.0,2023-03-22_12h52.27.619,stress,2023.1.0,59.883502633903866,
3,5,0,4,2,1,4,6,5,3,6,0,1,1,1,1,0,331,331,331,up,1,0.7663963999993939,None,,,,pil_001,002,0.9,1.0,2023-03-22_12h52.27.619,stress,2023.1.0,59.883502633903866,
1,4,5,2,3,0,4,6,3,5,3,0,1,1,0,1,0,332,332,332,left,1,0.8532388000003266,None,,,,pil_001,002,0.9,1.0,2023-03-22_12h52.27.619,stress,2023.1.0,59.883502633903866,
4,2,1,5,3,0,4,0,0,5,6,3,1,0,0,1,0,333,333,333,left,1,1.3204626999995526,None,,,,pil_001,002,0.9,1.0,2023-03-22_12h52.27.619,stress,2023.1.0,59.883502633903866,
1,4,2,0,3,5,4,6,3,5,5,0,1,0,1,1,0,334,334,334,up,1,1.2188484999996945,None,,,,pil_001,002,0.9,1.0,2023-03-22_12h52.27.619,stress,2023.1.0,59.883502633903866,
1,3,0,5,2,4,4,0,3,0,6,3,0,1,0,1,0,335,335,335,left,1,0.8542568000002575,None,,,,pil_001,002,0.9,1.0,2023-03-22_12h52.27.619,stress,2023.1.0,59.883502633903866,
4,1,0,2,5,3,4,5,3,5,0,3,1,1,1,1,0,336,336,336,up,1,1.2342696999994587,None,,,,pil_001,002,0.9,1.0,2023-03-22_12h52.27.619,stress,2023.1.0,59.883502633903866,
4,0,1,2,5,3,4,3,0,5,6,5,1,1,1,1,0,337,337,337,up,1,1.1077096999997593,None,,,,pil_001,002,0.9,1.0,2023-03-22_12h52.27.619,stress,2023.1.0,59.883502633903866,
4,3,5,0,1,2,4,3,6,0,0,3,1,0,0,1,0,338,338,338,left,1,1.4718894999996337,None,,,,pil_001,002,0.9,1.0,2023-03-22_12h52.27.619,stress,2023.1.0,59.883502633903866,
4,5,2,0,1,3,4,3,0,6,5,5,1,1,0,1,0,339,339,339,left,1,0.6528272000005018,None,,,,pil_001,002,0.9,1.0,2023-03-22_12h52.27.619,stress,2023.1.0,59.883502633903866,
5,2,3,1,0,4,4,0,3,6,0,5,1,0,0,1,0,340,340,340,left,1,1.5974425000003976,None,,,,pil_001,002,0.9,1.0,2023-03-22_12h52.27.619,stress,2023.1.0,59.883502633903866,
1,4,3,2,0,5,4,6,3,3,0,6,1,1,0,1,0,341,341,341,left,1,0.9821862999997393,None,,,,pil_001,002,0.9,1.0,2023-03-22_12h52.27.619,stress,2023.1.0,59.883502633903866,
3,1,4,0,5,2,4,0,3,5,5,6,1,0,0,1,0,342,342,342,left,1,0.8492353999999978,None,,,,pil_001,002,0.9,1.0,2023-03-22_12h52.27.619,stress,2023.1.0,59.883502633903866,
2,4,0,1,5,3,4,3,5,0,0,3,1,1,0,1,0,343,343,343,left,1,0.9481737000005523,None,,,,pil_001,002,0.9,1.0,2023-03-22_12h52.27.619,stress,2023.1.0,59.883502633903866,
0,3,4,2,5,1,4,3,0,3,6,5,1,1,1,1,0,344,344,344,up,1,1.157470299999659,None,,,,pil_001,002,0.9,1.0,2023-03-22_12h52.27.619,stress,2023.1.0,59.883502633903866,
4,1,3,0,2,5,4,0,5,6,3,6,0,0,0,1,0,345,345,345,left,1,1.2913453000001027,None,,,,pil_001,002,0.9,1.0,2023-03-22_12h52.27.619,stress,2023.1.0,59.883502633903866,
3,4,1,2,0,5,4,5,0,6,5,6,0,1,1,1,0,346,346,346,up,1,0.8342400000001362,None,,,,pil_001,002,0.9,1.0,2023-03-22_12h52.27.619,stress,2023.1.0,59.883502633903866,
3,1,4,0,5,2,4,6,3,3,6,5,0,0,0,1,0,347,347,347,left,1,0.702002199999697,None,,,,pil_001,002,0.9,1.0,2023-03-22_12h52.27.619,stress,2023.1.0,59.883502633903866,
0,5,2,3,4,1,4,6,6,5,5,0,1,1,1,1,0,348,348,348,up,1,0.7698814999994283,None,,,,pil_001,002,0.9,1.0,2023-03-22_12h52.27.619,stress,2023.1.0,59.883502633903866,
3,4,5,2,0,1,4,6,3,5,3,6,0,0,0,1,0,349,349,349,left,1,0.5533216000003449,None,,,,pil_001,002,0.9,1.0,2023-03-22_12h52.27.619,stress,2023.1.0,59.883502633903866,
0,2,4,1,5,3,4,0,5,0,3,3,1,1,0,1,0,350,350,350,up,0,0.6448286000004373,None,,,,pil_001,002,0.9,1.0,2023-03-22_12h52.27.619,stress,2023.1.0,59.883502633903866,
3,2,0,1,5,4,4,5,5,3,0,6,1,0,0,1,0,351,351,351,left,1,0.6443087999996351,None,,,,pil_001,002,0.9,1.0,2023-03-22_12h52.27.619,stress,2023.1.0,59.883502633903866,
3,5,4,2,0,1,4,0,6,5,0,3,1,0,1,1,0,352,352,352,up,1,0.5909343000002991,None,,,,pil_001,002,0.9,1.0,2023-03-22_12h52.27.619,stress,2023.1.0,59.883502633903866,
0,2,3,4,1,5,4,6,0,0,3,5,1,1,1,1,0,353,353,353,up,1,0.688782899999751,None,,,,pil_001,002,0.9,1.0,2023-03-22_12h52.27.619,stress,2023.1.0,59.883502633903866,
5,2,4,0,1,3,4,3,0,5,0,3,1,0,0,1,0,354,354,354,left,1,0.9229874000002383,None,,,,pil_001,002,0.9,1.0,2023-03-22_12h52.27.619,stress,2023.1.0,59.883502633903866,
3,5,1,4,0,2,4,5,5,0,0,6,1,1,1,1,0,355,355,355,up,1,0.5350772000001598,None,,,,pil_001,002,0.9,1.0,2023-03-22_12h52.27.619,stress,2023.1.0,59.883502633903866,
5,0,1,2,4,3,4,0,3,5,5,6,1,1,1,1,0,356,356,356,up,1,1.1447134000000005,None,,,,pil_001,002,0.9,1.0,2023-03-22_12h52.27.619,stress,2023.1.0,59.883502633903866,
3,0,2,1,5,4,4,5,6,0,0,3,1,1,1,1,0,357,357,357,left,0,0.6041132000000289,None,,,,pil_001,002,0.9,1.0,2023-03-22_12h52.27.619,stress,2023.1.0,59.883502633903866,
3,1,0,4,2,5,4,5,3,6,6,5,1,1,1,1,0,358,358,358,up,1,0.5426015000002735,None,,,,pil_001,002,0.9,1.0,2023-03-22_12h52.27.619,stress,2023.1.0,59.883502633903866,
0,4,2,5,3,1,4,5,0,6,3,5,1,0,1,1,0,359,359,359,up,1,0.5125258999996731,space,4.315956999999798,,,pil_001,002,0.9,1.0,2023-03-22_12h52.27.619,stress,2023.1.0,59.883502633903866,
0,2,5,1,3,4,4,3,5,0,3,0,1,1,1,1,0,360,360,360,up,1,0.6788138000001709,None,,,,pil_001,002,0.9,1.0,2023-03-22_12h52.27.619,stress,2023.1.0,59.883502633903866,
4,2,3,1,0,5,4,6,5,0,5,3,1,0,0,1,0,361,361,361,left,1,0.8401019000002634,None,,,,pil_001,002,0.9,1.0,2023-03-22_12h52.27.619,stress,2023.1.0,59.883502633903866,
3,2,1,0,5,4,4,5,3,5,6,0,1,0,1,1,0,362,362,362,up,1,0.5741934999996374,None,,,,pil_001,002,0.9,1.0,2023-03-22_12h52.27.619,stress,2023.1.0,59.883502633903866,
4,2,3,0,5,1,4,3,6,3,0,5,1,1,0,1,0,363,363,363,left,1,0.729090200000428,None,,,,pil_001,002,0.9,1.0,2023-03-22_12h52.27.619,stress,2023.1.0,59.883502633903866,
3,4,0,1,5,2,4,3,5,0,6,3,1,1,1,1,0,364,364,364,up,1,0.6425485999998273,None,,,,pil_001,002,0.9,1.0,2023-03-22_12h52.27.619,stress,2023.1.0,59.883502633903866,
4,0,3,2,1,5,4,3,0,6,6,5,1,0,0,1,0,365,365,365,left,1,0.6638222000001406,None,,,,pil_001,002,0.9,1.0,2023-03-22_12h52.27.619,stress,2023.1.0,59.883502633903866,
0,5,3,1,4,2,4,0,5,5,6,6,1,1,0,1,0,366,366,366,up,0,0.5759275000000343,None,,,,pil_001,002,0.9,1.0,2023-03-22_12h52.27.619,stress,2023.1.0,59.883502633903866,
5,0,4,2,3,1,4,3,0,0,5,6,1,0,0,1,0,367,367,367,left,1,0.7810680000002321,None,,,,pil_001,002,0.9,1.0,2023-03-22_12h52.27.619,stress,2023.1.0,59.883502633903866,
2,5,1,4,0,3,4,6,5,5,3,3,0,0,1,1,0,368,368,368,up,1,1.5107389999993757,None,,,,pil_001,002,0.9,1.0,2023-03-22_12h52.27.619,stress,2023.1.0,59.883502633903866,
3,2,4,1,0,5,4,6,0,3,6,5,1,1,0,1,0,369,369,369,left,1,0.9044497999993837,None,,,,pil_001,002,0.9,1.0,2023-03-22_12h52.27.619,stress,2023.1.0,59.883502633903866,
2,3,0,5,1,4,4,6,6,0,3,3,1,0,1,1,0,370,370,370,up,1,0.6762373999999909,None,,,,pil_001,002,0.9,1.0,2023-03-22_12h52.27.619,stress,2023.1.0,59.883502633903866,
2,4,1,0,3,5,4,6,6,3,3,5,1,0,1,1,0,371,371,371,up,1,0.9377653999999893,None,,,,pil_001,002,0.9,1.0,2023-03-22_12h52.27.619,stress,2023.1.0,59.883502633903866,
4,1,2,0,3,5,4,6,6,3,0,3,0,1,1,1,0,372,372,372,up,1,0.7870332000002236,None,,,,pil_001,002,0.9,1.0,2023-03-22_12h52.27.619,stress,2023.1.0,59.883502633903866,
3,4,1,5,0,2,4,0,6,5,5,3,1,0,0,1,0,373,373,373,left,1,0.5677318999996714,None,,,,pil_001,002,0.9,1.0,2023-03-22_12h52.27.619,stress,2023.1.0,59.883502633903866,
2,1,5,3,4,0,4,3,5,6,0,6,1,1,0,1,0,374,374,374,left,1,0.7709765999998126,None,,,,pil_001,002,0.9,1.0,2023-03-22_12h52.27.619,stress,2023.1.0,59.883502633903866,
2,4,1,0,5,3,4,0,3,0,6,5,1,0,1,1,0,375,375,375,up,1,0.8574312000000646,None,,,,pil_001,002,0.9,1.0,2023-03-22_12h52.27.619,stress,2023.1.0,59.883502633903866,
0,4,2,1,5,3,4,5,0,0,6,6,1,1,0,1,0,376,376,376,left,1,0.9420251000001372,None,,,,pil_001,002,0.9,1.0,2023-03-22_12h52.27.619,stress,2023.1.0,59.883502633903866,
3,5,1,0,4,2,4,5,3,3,6,5,1,0,1,1,0,377,377,377,up,1,0.6470707999997103,None,,,,pil_001,002,0.9,1.0,2023-03-22_12h52.27.619,stress,2023.1.0,59.883502633903866,
1,2,5,3,0,4,4,6,6,0,0,5,1,1,0,1,0,378,378,378,left,1,1.2080723999997645,None,,,,pil_001,002,0.9,1.0,2023-03-22_12h52.27.619,stress,2023.1.0,59.883502633903866,
3,5,4,2,0,1,4,6,3,5,5,0,1,0,1,1,0,379,379,379,up,1,0.6792402000000948,None,,,,pil_001,002,0.9,1.0,2023-03-22_12h52.27.619,stress,2023.1.0,59.883502633903866,
2,4,1,0,3,5,4,6,5,3,5,0,1,0,1,1,0,380,380,380,up,1,0.8340775000006033,None,,,,pil_001,002,0.9,1.0,2023-03-22_12h52.27.619,stress,2023.1.0,59.883502633903866,
3,4,1,2,0,5,4,6,3,5,0,5,1,1,1,1,0,381,381,381,up,1,0.7658006999999998,None,,,,pil_001,002,0.9,1.0,2023-03-22_12h52.27.619,stress,2023.1.0,59.883502633903866,
1,5,3,2,4,0,4,5,3,0,5,3,1,0,1,1,0,382,382,382,up,1,0.6681123999996998,None,,,,pil_001,002,0.9,1.0,2023-03-22_12h52.27.619,stress,2023.1.0,59.883502633903866,
5,1,3,0,2,4,4,6,6,3,0,0,1,0,1,1,0,383,383,383,up,1,1.1704675000000861,None,,,,pil_001,002,0.9,1.0,2023-03-22_12h52.27.619,stress,2023.1.0,59.883502633903866,
4,1,5,0,2,3,4,6,5,0,0,5,1,1,0,1,0,384,384,384,left,1,0.7762437999999747,None,,,,pil_001,002,0.9,1.0,2023-03-22_12h52.27.619,stress,2023.1.0,59.883502633903866,
4,2,1,5,3,0,4,6,5,5,0,0,0,0,0,1,0,385,385,385,left,1,0.5848704999998517,None,,,,pil_001,002,0.9,1.0,2023-03-22_12h52.27.619,stress,2023.1.0,59.883502633903866,
0,3,5,4,1,2,4,6,0,5,5,6,1,0,1,1,0,386,386,386,up,1,0.5183591000004526,None,,,,pil_001,002,0.9,1.0,2023-03-22_12h52.27.619,stress,2023.1.0,59.883502633903866,
3,4,1,0,2,5,4,0,6,3,3,6,1,1,1,1,0,387,387,387,up,1,0.6387790999997378,None,,,,pil_001,002,0.9,1.0,2023-03-22_12h52.27.619,stress,2023.1.0,59.883502633903866,
3,2,4,1,5,0,4,5,5,6,3,6,1,1,1,1,0,388,388,388,up,1,0.46983650000038324,None,,,,pil_001,002,0.9,1.0,2023-03-22_12h52.27.619,stress,2023.1.0,59.883502633903866,
0,4,5,1,3,2,4,3,6,5,3,5,1,1,0,1,0,389,389,389,left,1,1.3411526999998387,None,,,,pil_001,002,0.9,1.0,2023-03-22_12h52.27.619,stress,2023.1.0,59.883502633903866,
0,1,3,4,2,5,4,3,5,3,0,6,1,0,0,1,0,390,390,390,left,1,0.9340459000004557,None,,,,pil_001,002,0.9,1.0,2023-03-22_12h52.27.619,stress,2023.1.0,59.883502633903866,
0,4,5,1,3,2,4,0,6,3,3,5,1,0,1,1,0,391,391,391,up,1,0.6766929000004893,None,,,,pil_001,002,0.9,1.0,2023-03-22_12h52.27.619,stress,2023.1.0,59.883502633903866,
0,1,4,5,2,3,4,0,0,5,3,5,1,0,0,1,0,392,392,392,left,1,0.922926300000654,None,,,,pil_001,002,0.9,1.0,2023-03-22_12h52.27.619,stress,2023.1.0,59.883502633903866,
0,1,4,2,5,3,4,5,3,0,3,0,1,1,0,1,0,393,393,393,left,1,0.6693454999995083,None,,,,pil_001,002,0.9,1.0,2023-03-22_12h52.27.619,stress,2023.1.0,59.883502633903866,
3,5,1,2,0,4,4,6,5,0,3,3,1,0,1,1,0,394,394,394,up,1,0.5934538999999859,None,,,,pil_001,002,0.9,1.0,2023-03-22_12h52.27.619,stress,2023.1.0,59.883502633903866,
5,2,4,3,0,1,4,0,0,3,5,3,1,0,1,1,0,395,395,395,up,1,0.7939665000003515,None,,,,pil_001,002,0.9,1.0,2023-03-22_12h52.27.619,stress,2023.1.0,59.883502633903866,
3,2,1,5,4,0,4,6,3,0,6,5,1,0,0,1,0,396,396,396,left,1,0.6196992999994109,None,,,,pil_001,002,0.9,1.0,2023-03-22_12h52.27.619,stress,2023.1.0,59.883502633903866,
4,0,1,3,5,2,4,0,3,5,6,3,1,0,1,1,0,397,397,397,up,1,0.9140250000000378,None,,,,pil_001,002,0.9,1.0,2023-03-22_12h52.27.619,stress,2023.1.0,59.883502633903866,
2,4,1,5,3,0,4,0,5,5,3,3,1,1,1,1,0,398,398,398,up,1,0.7096479000001636,None,,,,pil_001,002,0.9,1.0,2023-03-22_12h52.27.619,stress,2023.1.0,59.883502633903866,
0,5,1,2,4,3,4,0,6,3,5,5,1,1,0,1,0,399,399,399,left,1,1.3012829999997848,space,1.864192699999876,,,pil_001,002,0.9,1.0,2023-03-22_12h52.27.619,stress,2023.1.0,59.883502633903866,
,,,,,,,,,,,,,,,,,,,,,,,,,space,0.8051933000006102,pil_001,002,0.9,1.0,2023-03-22_12h52.27.619,stress,2023.1.0,59.883502633903866,
